"","stimuliShown","group_1","buttonBox_2.started","cross_sel.started","cross_slow.started","dur_fix","dur_selection","perceptual_result","block","stim1","stim2","response","rt","reward","ID","stim_chosen","typeOfChoice","highChosen","riskChosen","forced","choices","win","correct","risky","trial","trial_cont","trial_id","trial_n","trigger_integer","buttonBox_2.keys","participant","left_rew_dbl","right_rew_dbl"
"1",21,"underestimator",50.7886059,"None","52.8667562",142,NA,"overestimator",1,"2","1",NA,NA,66,"sub-001",0,1,NA,NA,0,NA,1,NA,NA,1,1,1,1,21,"None","sub-001",54,66
"2",31,"underestimator",55.1638667,"None","56.8166404",121,NA,"overestimator",1,"3","1",NA,NA,59,"sub-001",0,2,0,NA,0,NA,NA,NA,NA,2,2,2,2,31,"None","sub-001",55,59
"3",23,"underestimator",59.3300436,"None","61.0043812",156,NA,"overestimator",1,"2","3",NA,NA,48,"sub-001",0,4,0,NA,0,NA,NA,NA,NA,3,3,3,3,23,"None","sub-001",59,48
"4",13,"underestimator",63.2370087,"64.295227","None",121,129,"overestimator",1,"1","3","1",0.9840647,59,"sub-001",3,2,0,NA,0,0,NA,0,NA,4,4,4,4,13,"1","sub-001",71,59
"5",13,"underestimator",67.7187641,"68.9246816","None",130,134,"overestimator",1,"1","3","0",1.1326143,63,"sub-001",1,2,1,NA,0,1,NA,1,NA,5,5,5,5,13,"0","sub-001",63,14
"6",43,"underestimator",72.6625048,"73.3452225","None",161,155,"overestimator",1,"4","3","1",0.608768,55,"sub-001",3,6,NA,1,0,0,-1,NA,1,6,6,6,6,43,"1","sub-001",46,55
"7",34,"underestimator",76.9365202,"78.1369356","None",123,122,"overestimator",1,"3","4","1",1.1309331,42,"sub-001",4,6,NA,0,0,0,-1,NA,0,7,7,7,7,34,"1","sub-001",72,42
"8",42,"underestimator",81.6830179,"82.9357685","None",151,120,"overestimator",1,"4","2","0",1.1826298,41,"sub-001",4,5,0,NA,0,1,NA,0,NA,8,8,8,8,42,"0","sub-001",41,52
"9",12,"underestimator",86.4589347,"87.1546475","None",150,160,"overestimator",1,"1","2","1",0.6281477,72,"sub-001",2,1,NA,0,0,0,1,NA,0,9,9,9,9,12,"1","sub-001",83,72
"10",12,"underestimator",91.1020402,"92.2623242","None",157,162,"overestimator",1,"1","2","1",1.0904238,55,"sub-001",2,1,NA,0,0,0,1,NA,0,10,10,10,10,12,"1","sub-001",70,55
"11",32,"underestimator",96.136634,"97.6570822","None",149,127,"overestimator",1,"3","2","1",1.4507693,64,"sub-001",2,4,1,NA,0,0,NA,1,NA,11,11,11,11,32,"1","sub-001",45,64
"12",21,"underestimator",101.4012483,"None","103.066506",169,NA,"overestimator",1,"2","1",NA,NA,53,"sub-001",0,1,NA,NA,0,NA,1,NA,NA,12,12,12,12,21,"None","sub-001",49,53
"13",34,"underestimator",105.5060559,"106.7707661","None",144,134,"overestimator",1,"3","4","0",1.1982601,29,"sub-001",3,6,NA,1,0,1,-1,NA,1,13,13,13,13,34,"0","sub-001",29,41
"14",34,"underestimator",110.2501471,"110.9187529","None",128,136,"overestimator",1,"3","4","1",0.5994522,38,"sub-001",4,6,NA,0,0,0,-1,NA,0,14,14,14,14,34,"1","sub-001",49,38
"15",32,"underestimator",114.5681515,"115.7934186","None",150,167,"overestimator",1,"3","2","1",1.1564967,53,"sub-001",2,4,1,NA,0,0,NA,1,NA,15,15,15,15,32,"1","sub-001",40,53
"16",32,"underestimator",119.6515361,"120.5602627","None",142,132,"overestimator",1,"3","2","1",0.8418594,64,"sub-001",2,4,1,NA,0,0,NA,1,NA,16,16,16,16,32,"1","sub-001",60,64
"17",42,"underestimator",124.3995549,"125.3231124","None",173,137,"overestimator",1,"4","2","1",0.8515357,61,"sub-001",2,5,1,NA,0,0,NA,1,NA,17,17,17,17,42,"1","sub-001",36,61
"18",43,"underestimator",128.9833635,"129.7161074","None",146,153,"overestimator",1,"4","3","0",0.6650493,44,"sub-001",4,6,NA,0,0,1,-1,NA,0,18,18,18,18,43,"0","sub-001",44,37
"19",14,"underestimator",133.4101915,"134.9114073","None",137,145,"overestimator",1,"1","4","0",1.4321454,64,"sub-001",1,3,1,NA,0,1,NA,1,NA,19,19,19,19,14,"0","sub-001",64,43
"20",34,"underestimator",138.7086178,"None","140.3634178",157,NA,"overestimator",1,"3","4",NA,NA,40,"sub-001",0,6,NA,NA,0,NA,-1,NA,NA,20,20,20,20,34,"None","sub-001",69,40
"21",32,"underestimator",142.8667966,"143.821113","None",153,154,"overestimator",1,"3","2","1",0.8826433,64,"sub-001",2,4,1,NA,0,0,NA,1,NA,21,21,21,21,32,"1","sub-001",47,64
"22",14,"underestimator",147.6664402,"None","149.3110069",154,NA,"overestimator",1,"1","4",NA,NA,42,"sub-001",0,3,0,NA,0,NA,NA,NA,NA,22,22,22,22,14,"None","sub-001",52,42
"23",43,"underestimator",151.9575488,"153.1011461","None",170,121,"overestimator",1,"4","3","1",1.0743156,21,"sub-001",3,6,NA,1,0,0,-1,NA,1,23,23,23,23,43,"1","sub-001",31,21
"24",13,"underestimator",156.7640936,"158.2396294","None",166,139,"overestimator",1,"1","3","0",1.4068935,50,"sub-001",1,2,1,NA,0,1,NA,1,NA,24,24,24,24,13,"0","sub-001",50,57
"25",24,"underestimator",161.7488459,"162.8747468","None",130,152,"overestimator",1,"2","4","0",1.0574537,62,"sub-001",2,5,1,NA,0,1,NA,1,NA,25,25,25,25,24,"0","sub-001",62,37
"26",43,"underestimator",166.582772,"167.523588","None",140,121,"overestimator",1,"4","3","0",0.8723956,42,"sub-001",4,6,NA,0,0,1,-1,NA,0,26,26,26,26,43,"0","sub-001",42,39
"27",32,"underestimator",170.9156565,"171.8755182","None",133,176,"overestimator",1,"3","2","1",0.8907312,57,"sub-001",2,4,1,NA,0,0,NA,1,NA,27,27,27,27,32,"1","sub-001",40,57
"28",43,"underestimator",176.1138465,"177.411018","None",179,134,"overestimator",1,"4","3","0",1.2279676,40,"sub-001",4,6,NA,0,0,1,-1,NA,0,28,28,28,28,43,"0","sub-001",40,42
"29",14,"underestimator",181.1567854,"182.3698528","None",159,137,"overestimator",1,"1","4","0",1.1422737,73,"sub-001",1,3,1,NA,0,1,NA,1,NA,29,29,29,29,14,"0","sub-001",73,45
"30",14,"underestimator",185.9053898,"186.7277716","None",133,158,"overestimator",1,"1","4","0",0.7526994,72,"sub-001",1,3,1,NA,0,1,NA,1,NA,30,30,30,30,14,"0","sub-001",72,49
"31",14,"underestimator",190.7219119,"191.3328367","None",169,158,"overestimator",1,"1","4","0",0.5410119,73,"sub-001",1,3,1,NA,0,1,NA,1,NA,31,31,31,31,14,"0","sub-001",73,40
"32",14,"underestimator",194.9981605,"195.5182035","None",129,150,"overestimator",1,"1","4","0",0.4520175,73,"sub-001",1,3,1,NA,0,1,NA,1,NA,32,32,32,32,14,"0","sub-001",73,40
"33",21,"underestimator",199.0393878,"None","200.6965622",121,NA,"overestimator",1,"2","1",NA,NA,42,"sub-001",0,1,NA,NA,0,NA,1,NA,NA,33,33,33,33,21,"None","sub-001",65,42
"34",24,"underestimator",203.1483514,"204.0898949","None",145,129,"overestimator",1,"2","4","0",0.8760802,57,"sub-001",2,5,1,NA,0,1,NA,1,NA,34,34,34,34,24,"0","sub-001",57,42
"35",41,"underestimator",207.7629533,"208.3943067","None",160,150,"overestimator",1,"4","1","1",0.5649249,85,"sub-001",1,3,1,NA,0,0,NA,1,NA,35,35,35,35,41,"1","sub-001",38,85
"36",31,"underestimator",212.0410826,"212.9166608","None",135,175,"overestimator",1,"3","1","1",0.8080419,72,"sub-001",1,2,1,NA,0,0,NA,1,NA,36,36,36,36,31,"1","sub-001",43,72
"37",42,"underestimator",216.7808853,"217.3888374","None",135,124,"overestimator",1,"4","2","1",0.5401535,57,"sub-001",2,5,1,NA,0,0,NA,1,NA,37,37,37,37,42,"1","sub-001",42,57
"38",24,"underestimator",220.9381278,"221.65267","None",150,123,"overestimator",1,"2","4","0",0.6482889,64,"sub-001",2,5,1,NA,0,1,NA,1,NA,38,38,38,38,24,"0","sub-001",64,45
"39",12,"underestimator",225.2290145,"226.4436408","None",152,123,"overestimator",1,"1","2","0",1.1493847,74,"sub-001",1,1,NA,1,0,1,1,NA,1,39,39,39,39,12,"0","sub-001",74,62
"40",34,"underestimator",230.1127826,"231.4949142","None",166,147,"overestimator",1,"3","4","1",1.314682,36,"sub-001",4,6,NA,0,0,0,-1,NA,0,40,40,40,40,34,"1","sub-001",53,36
"41",24,"underestimator",235.2701902,"236.6805118","None",155,138,"overestimator",1,"2","4","0",1.3426254,55,"sub-001",2,5,1,NA,0,1,NA,1,NA,41,41,41,41,24,"0","sub-001",55,45
"42",41,"underestimator",240.312963,"241.0215472","None",141,135,"overestimator",1,"4","1","1",0.6405912,78,"sub-001",1,3,1,NA,0,0,NA,1,NA,42,42,42,42,41,"1","sub-001",34,78
"43",12,"underestimator",244.454879,"244.9750577","None",123,124,"overestimator",1,"1","2","0",0.4447647,53,"sub-001",1,1,NA,1,0,1,1,NA,1,43,43,43,43,12,"0","sub-001",53,53
"44",21,"underestimator",248.4299286,"248.967857","None",140,151,"overestimator",1,"2","1","0",0.4669187,56,"sub-001",2,1,NA,0,0,1,1,NA,0,44,44,44,44,21,"0","sub-001",56,64
"45",14,"underestimator",252.6047577,"253.178047","None",132,124,"overestimator",1,"1","4","0",0.5013608,74,"sub-001",1,3,1,NA,0,1,NA,1,NA,45,45,45,45,14,"0","sub-001",74,39
"46",31,"underestimator",274.6713129,"276.0309919","None",140,151,"overestimator",1,"3","1","1",1.2899903,72,"sub-001",1,2,1,NA,0,0,NA,1,NA,46,46,46,46,31,"1","sub-001",52,72
"47",41,"underestimator",279.9769374,"280.6627773","None",170,167,"overestimator",1,"4","1","1",0.6167387,38,"sub-001",1,3,1,NA,0,0,NA,1,NA,47,47,47,47,41,"1","sub-001",42,38
"48",34,"underestimator",284.4131785,"None","286.0579549",130,NA,"overestimator",1,"3","4",NA,NA,39,"sub-001",0,6,NA,NA,0,NA,-1,NA,NA,48,48,48,48,34,"None","sub-001",37,39
"49",12,"underestimator",288.4174205,"289.4331028","None",136,166,"overestimator",1,"1","2","0",0.9512847,68,"sub-001",1,1,NA,1,0,1,1,NA,1,49,49,49,49,12,"0","sub-001",68,56
"50",42,"underestimator",293.4669584,"294.2635814","None",163,134,"overestimator",1,"4","2","1",0.7324723,58,"sub-001",2,5,1,NA,0,0,NA,1,NA,50,50,50,50,42,"1","sub-001",40,58
"51",24,"underestimator",297.8577775,"298.7230073","None",146,176,"overestimator",1,"2","4","0",0.8001976,57,"sub-001",2,5,1,NA,0,1,NA,1,NA,51,51,51,51,24,"0","sub-001",57,44
"52",42,"underestimator",302.5838052,"303.243611","None",136,170,"overestimator",1,"4","2","1",0.5965228,62,"sub-001",2,5,1,NA,0,0,NA,1,NA,52,52,52,52,42,"1","sub-001",43,62
"53",41,"underestimator",306.9509602,"307.4564013","None",123,154,"overestimator",1,"4","1","1",0.4414929,66,"sub-001",1,3,1,NA,0,0,NA,1,NA,53,53,53,53,41,"1","sub-001",42,66
"54",21,"underestimator",311.4337245,"311.9935661","None",172,163,"overestimator",1,"2","1","1",0.4955872,64,"sub-001",1,1,NA,1,0,0,1,NA,1,54,54,54,54,21,"1","sub-001",56,64
"55",32,"underestimator",315.9516948,"316.8274197","None",157,139,"overestimator",1,"3","2","1",0.8061451,55,"sub-001",2,4,1,NA,0,0,NA,1,NA,55,55,55,55,32,"1","sub-001",47,55
"56",32,"underestimator",320.4625995,"321.2372445","None",144,178,"overestimator",1,"3","2","1",0.7051103,58,"sub-001",2,4,1,NA,0,0,NA,1,NA,56,56,56,56,32,"1","sub-001",32,58
"57",42,"underestimator",325.4596455,"326.0281116","None",177,175,"overestimator",1,"4","2","1",0.5050029,54,"sub-001",2,5,1,NA,0,0,NA,1,NA,57,57,57,57,42,"1","sub-001",37,54
"58",31,"underestimator",329.7744976,"330.8160212","None",121,178,"overestimator",1,"3","1","1",0.9772421,56,"sub-001",1,2,1,NA,0,0,NA,1,NA,58,58,58,58,31,"1","sub-001",37,56
"59",13,"underestimator",334.7780469,"335.4019729","None",144,146,"overestimator",1,"1","3","0",0.5507575,75,"sub-001",1,2,1,NA,0,1,NA,1,NA,59,59,59,59,13,"0","sub-001",75,40
"60",41,"underestimator",339.1582364,"339.8929557","None",154,134,"overestimator",1,"4","1","1",0.6671437,84,"sub-001",1,3,1,NA,0,0,NA,1,NA,60,60,60,60,41,"1","sub-001",48,84
"61",24,"underestimator",343.6618219,"344.4538652","None",162,145,"overestimator",1,"2","4","0",0.7218842,52,"sub-001",2,5,1,NA,0,1,NA,1,NA,61,61,61,61,24,"0","sub-001",52,35
"62",23,"underestimator",348.2657546,"349.1724861","None",161,156,"overestimator",1,"2","3","0",0.8425871,60,"sub-001",2,4,1,NA,0,1,NA,1,NA,62,62,62,62,23,"0","sub-001",60,70
"63",43,"underestimator",353.2274612,"354.7606858","None",177,143,"overestimator",1,"4","3","0",1.4637801,47,"sub-001",4,6,NA,0,0,1,-1,NA,0,63,63,63,63,43,"0","sub-001",47,31
"64",24,"underestimator",358.6827741,"359.6813295","None",176,160,"overestimator",1,"2","4","0",0.9262606,57,"sub-001",2,5,1,NA,0,1,NA,1,NA,64,64,64,64,24,"0","sub-001",57,40
"65",13,"underestimator",363.5974547,"364.4911791","None",158,125,"overestimator",1,"1","3","0",0.829316,47,"sub-001",1,2,1,NA,0,1,NA,1,NA,65,65,65,65,13,"0","sub-001",47,51
"66",43,"underestimator",368.014322,"369.2779543","None",145,141,"overestimator",1,"4","3","0",1.1982517,36,"sub-001",4,6,NA,0,0,1,-1,NA,0,66,66,66,66,43,"0","sub-001",36,48
"67",12,"underestimator",373.0559234,"374.1735351","None",159,154,"overestimator",1,"1","2","0",1.0528156,91,"sub-001",1,1,NA,1,0,1,1,NA,1,67,67,67,67,12,"0","sub-001",91,61
"68",42,"underestimator",378.1885259,"379.274969","None",175,171,"overestimator",1,"4","2","1",1.0214802,59,"sub-001",2,5,1,NA,0,0,NA,1,NA,68,68,68,68,42,"1","sub-001",35,59
"69",14,"underestimator",383.064342,"383.7830541","None",132,146,"overestimator",1,"1","4","0",0.6539449,83,"sub-001",1,3,1,NA,0,1,NA,1,NA,69,69,69,69,14,"0","sub-001",83,39
"70",12,"underestimator",387.6379501,"388.3297738","None",162,153,"overestimator",1,"1","2","0",0.6280077,50,"sub-001",1,1,NA,1,0,1,1,NA,1,70,70,70,70,12,"0","sub-001",50,62
"71",12,"underestimator",392.1719815,"392.7158748","None",153,175,"overestimator",1,"1","2","0",0.4783943,78,"sub-001",1,1,NA,1,0,1,1,NA,1,71,71,71,71,12,"0","sub-001",78,54
"72",41,"underestimator",396.8166906,"397.5256093","None",166,121,"overestimator",1,"4","1","1",0.6390975,73,"sub-001",1,3,1,NA,0,0,NA,1,NA,72,72,72,72,41,"1","sub-001",43,73
"73",43,"underestimator",401.156044,"402.5436483","None",162,156,"overestimator",1,"4","3","0",1.3192807,52,"sub-001",4,6,NA,0,0,1,-1,NA,0,73,73,73,73,43,"0","sub-001",52,34
"74",21,"underestimator",406.5882693,"407.2969699","None",178,123,"overestimator",1,"2","1","1",0.6417917,76,"sub-001",1,1,NA,1,0,0,1,NA,1,74,74,74,74,21,"1","sub-001",49,76
"75",14,"underestimator",410.68209,"411.3891558","None",132,175,"overestimator",1,"1","4","0",0.642546,70,"sub-001",1,3,1,NA,0,1,NA,1,NA,75,75,75,75,14,"0","sub-001",70,39
"76",23,"underestimator",415.413212,"416.7352224","None",154,125,"overestimator",1,"2","3","0",1.2569858,65,"sub-001",2,4,1,NA,0,1,NA,1,NA,76,76,76,76,23,"0","sub-001",65,73
"77",31,"underestimator",420.4229274,"421.3653092","None",163,150,"overestimator",1,"3","1","1",0.8785051,30,"sub-001",1,2,1,NA,0,0,NA,1,NA,77,77,77,77,31,"1","sub-001",26,30
"78",24,"underestimator",425.040642,"426.3611362","None",140,170,"overestimator",1,"2","4","0",1.2537832,55,"sub-001",2,5,1,NA,0,1,NA,1,NA,78,78,78,78,24,"0","sub-001",55,38
"79",31,"underestimator",430.5212138,"431.1361031","None",178,122,"overestimator",1,"3","1","1",0.548802,54,"sub-001",1,2,1,NA,0,0,NA,1,NA,79,79,79,79,31,"1","sub-001",51,54
"80",41,"underestimator",434.5043038,"435.1411219","None",127,170,"overestimator",1,"4","1","1",0.5703513,90,"sub-001",1,3,1,NA,0,0,NA,1,NA,80,80,80,80,41,"1","sub-001",34,90
"81",24,"underestimator",439.0312793,"439.8109255","None",145,121,"overestimator",1,"2","4","0",0.7138653,63,"sub-001",2,5,1,NA,0,1,NA,1,NA,81,81,81,81,24,"0","sub-001",63,35
"82",41,"underestimator",443.5700925,"444.1347807","None",175,159,"overestimator",1,"4","1","1",0.4956996,88,"sub-001",1,3,1,NA,0,0,NA,1,NA,82,82,82,82,41,"1","sub-001",38,88
"83",41,"underestimator",448.2470964,"448.9206368","None",174,175,"overestimator",1,"4","1","1",0.6054255,64,"sub-001",1,3,1,NA,0,0,NA,1,NA,83,83,83,83,41,"1","sub-001",47,64
"84",13,"underestimator",452.7616251,"453.7098776","None",133,121,"overestimator",1,"1","3","0",0.8853673,27,"sub-001",1,2,1,NA,0,1,NA,1,NA,84,84,84,84,13,"0","sub-001",27,47
"85",12,"underestimator",457.3557205,"458.1045661","None",164,157,"overestimator",1,"1","2","0",0.6838652,55,"sub-001",1,1,NA,1,0,1,1,NA,1,85,85,85,85,12,"0","sub-001",55,54
"86",31,"underestimator",462.0955204,"462.704235","None",168,134,"overestimator",1,"3","1","1",0.5428181,66,"sub-001",1,2,1,NA,0,0,NA,1,NA,86,86,86,86,31,"1","sub-001",18,66
"87",34,"underestimator",466.3614229,"None","468.0011148",151,NA,"overestimator",1,"3","4",NA,NA,37,"sub-001",0,6,NA,NA,0,NA,-1,NA,NA,87,87,87,87,34,"None","sub-001",35,37
"88",23,"underestimator",470.5206435,"471.4421082","None",155,167,"overestimator",1,"2","3","1",0.853652,57,"sub-001",3,4,0,NA,0,0,NA,0,NA,88,88,88,88,23,"1","sub-001",55,57
"89",13,"underestimator",475.2271318,"476.3265658","None",135,138,"overestimator",1,"1","3","0",1.033392,60,"sub-001",1,2,1,NA,0,1,NA,1,NA,89,89,89,89,13,"0","sub-001",60,45
"90",34,"underestimator",480.1018688,"481.5130588","None",164,155,"overestimator",1,"3","4","1",1.345618,33,"sub-001",4,6,NA,0,0,0,-1,NA,0,90,90,90,90,34,"1","sub-001",59,33
"91",32,"underestimator",503.1587865,"504.4665185","None",134,156,"overestimator",1,"3","2","0",1.2420642,56,"sub-001",3,4,0,NA,0,1,NA,0,NA,91,91,91,91,32,"0","sub-001",56,54
"92",21,"underestimator",508.3344648,"509.289133","None",157,179,"overestimator",1,"2","1","1",0.8865238,83,"sub-001",1,1,NA,1,0,0,1,NA,1,92,92,92,92,21,"1","sub-001",65,83
"93",34,"underestimator",513.2933848,"514.5268199","None",147,173,"overestimator",1,"3","4","0",1.169815,20,"sub-001",3,6,NA,1,0,1,-1,NA,1,93,93,93,93,34,"0","sub-001",20,45
"94",23,"underestimator",518.3669646,"519.3982099","None",135,178,"overestimator",1,"2","3","0",0.9665508,48,"sub-001",2,4,1,NA,0,1,NA,1,NA,94,94,94,94,23,"0","sub-001",48,46
"95",13,"underestimator",523.2679601,"524.2034191","None",134,150,"overestimator",1,"1","3","0",0.8692212,72,"sub-001",1,2,1,NA,0,1,NA,1,NA,95,95,95,95,13,"0","sub-001",72,40
"96",42,"underestimator",528.2074946,"529.1404219","None",178,145,"overestimator",1,"4","2","1",0.8625346,55,"sub-001",2,5,1,NA,0,0,NA,1,NA,96,96,96,96,42,"1","sub-001",42,55
"97",43,"underestimator",532.9340844,"534.389023","None",158,156,"overestimator",1,"4","3","1",1.391733,25,"sub-001",3,6,NA,1,0,0,-1,NA,1,97,97,97,97,43,"1","sub-001",39,25
"98",23,"underestimator",538.0259481,"538.8623494","None",130,129,"overestimator",1,"2","3","0",0.7735356,62,"sub-001",2,4,1,NA,0,1,NA,1,NA,98,98,98,98,23,"0","sub-001",62,56
"99",12,"underestimator",542.6913395,"543.6771318","None",179,120,"overestimator",1,"1","2","0",0.9193007,41,"sub-001",1,1,NA,1,0,1,1,NA,1,99,99,99,99,12,"0","sub-001",41,54
"100",13,"underestimator",547.0336133,"547.7271368","None",129,121,"overestimator",1,"1","3","0",0.6297672,57,"sub-001",1,2,1,NA,0,1,NA,1,NA,100,100,100,100,13,"0","sub-001",57,27
"101",32,"underestimator",551.1324848,"552.1421411","None",135,166,"overestimator",1,"3","2","1",0.9460445,50,"sub-001",2,4,1,NA,0,0,NA,1,NA,101,101,101,101,32,"1","sub-001",50,50
"102",21,"underestimator",556.1663447,"556.7716904","None",163,156,"overestimator",1,"2","1","1",0.5374578,84,"sub-001",1,1,NA,1,0,0,1,NA,1,102,102,102,102,21,"1","sub-001",52,84
"103",34,"underestimator",560.5334855,"562.0484796","None",143,164,"overestimator",1,"3","4","1",1.4496764,41,"sub-001",4,6,NA,0,0,0,-1,NA,0,103,103,103,103,34,"1","sub-001",47,41
"104",34,"underestimator",565.7659188,"566.6916183","None",129,143,"overestimator",1,"3","4","1",0.8541636,36,"sub-001",4,6,NA,0,0,0,-1,NA,0,104,104,104,104,34,"1","sub-001",48,36
"105",31,"underestimator",570.3897001,"571.4152581","None",147,133,"overestimator",1,"3","1","1",0.9622808,75,"sub-001",1,2,1,NA,0,0,NA,1,NA,105,105,105,105,31,"1","sub-001",50,75
"106",14,"underestimator",574.9996032,"575.743069","None",146,134,"overestimator",1,"1","4","0",0.6787034,62,"sub-001",1,3,1,NA,0,1,NA,1,NA,106,106,106,106,14,"0","sub-001",62,42
"107",13,"underestimator",579.3156108,"580.0549017","None",142,176,"overestimator",1,"1","3","0",0.5986626,64,"sub-001",1,2,1,NA,0,1,NA,1,NA,107,107,107,107,13,"0","sub-001",64,59
"108",23,"underestimator",584.0351274,"585.4379987","None",150,169,"overestimator",1,"2","3","0",1.3382997,51,"sub-001",2,4,1,NA,0,1,NA,1,NA,108,108,108,108,23,"0","sub-001",51,38
"109",14,"underestimator",589.4299296,"590.2710125","None",158,120,"overestimator",1,"1","4","0",0.7757294,91,"sub-001",1,3,1,NA,0,1,NA,1,NA,109,109,109,109,14,"0","sub-001",91,28
"110",32,"underestimator",593.7960044,"595.0310171","None",153,150,"overestimator",1,"3","2","1",1.1698102,55,"sub-001",2,4,1,NA,0,0,NA,1,NA,110,110,110,110,32,"1","sub-001",47,55
"111",31,"underestimator",598.6140815,"599.5349136","None",128,153,"overestimator",1,"3","1","1",0.8565245,49,"sub-001",1,2,1,NA,0,0,NA,1,NA,111,111,111,111,31,"1","sub-001",7,49
"112",12,"underestimator",603.2732075,"603.9612181","None",144,141,"overestimator",1,"1","2","0",0.6236393,75,"sub-001",1,1,NA,1,0,1,1,NA,1,112,112,112,112,12,"0","sub-001",75,63
"113",23,"underestimator",607.4640606,"608.7414542","None",126,178,"overestimator",1,"2","3","0",1.2107402,60,"sub-001",2,4,1,NA,0,1,NA,1,NA,113,113,113,113,23,"0","sub-001",60,31
"114",43,"underestimator",612.5729766,"613.7682612","None",129,151,"overestimator",1,"4","3","0",1.1330066,40,"sub-001",4,6,NA,0,0,1,-1,NA,0,114,114,114,114,43,"0","sub-001",40,37
"115",41,"underestimator",617.4976052,"618.0761044","None",144,159,"overestimator",1,"4","1","1",0.5157945,60,"sub-001",1,3,1,NA,0,0,NA,1,NA,115,115,115,115,41,"1","sub-001",41,60
"116",23,"underestimator",621.7291947,"622.7299337","None",128,161,"overestimator",1,"2","3","0",0.9365388,59,"sub-001",2,4,1,NA,0,1,NA,1,NA,116,116,116,116,23,"0","sub-001",59,50
"117",31,"underestimator",626.5043462,"627.137055","None",141,178,"overestimator",1,"3","1","1",0.5658825,79,"sub-001",1,2,1,NA,0,0,NA,1,NA,117,117,117,117,31,"1","sub-001",49,79
"118",14,"underestimator",631.0065271,"631.5482245","None",135,126,"overestimator",1,"1","4","0",0.4772042,61,"sub-001",1,3,1,NA,0,1,NA,1,NA,118,118,118,118,14,"0","sub-001",61,48
"119",14,"underestimator",635.2144732,"635.906956","None",161,171,"overestimator",1,"1","4","0",0.6277713,88,"sub-001",1,3,1,NA,0,1,NA,1,NA,119,119,119,119,14,"0","sub-001",88,39
"120",31,"underestimator",639.7960926,"640.5000036","None",144,176,"overestimator",1,"3","1","1",0.6392262,81,"sub-001",1,2,1,NA,0,0,NA,1,NA,120,120,120,120,31,"1","sub-001",55,81
"121",14,"underestimator",644.5292212,"645.0419494","None",152,155,"overestimator",1,"1","4","0",0.4484522,97,"sub-001",1,3,1,NA,0,1,NA,1,NA,121,121,121,121,14,"0","sub-001",97,44
"122",12,"underestimator",648.8959278,"649.3618946","None",156,123,"overestimator",1,"1","2","0",0.4026893,53,"sub-001",1,1,NA,1,0,1,1,NA,1,122,122,122,122,12,"0","sub-001",53,51
"123",42,"underestimator",652.7110703,"653.9077256","None",126,163,"overestimator",1,"4","2","1",1.1307104,58,"sub-001",2,5,1,NA,0,0,NA,1,NA,123,123,123,123,42,"1","sub-001",44,58
"124",12,"underestimator",657.6858088,"658.2047822","None",134,128,"overestimator",1,"1","2","0",0.4538754,80,"sub-001",1,1,NA,1,0,1,1,NA,1,124,124,124,124,12,"0","sub-001",80,52
"125",12,"underestimator",661.6857938,"662.3067003","None",138,170,"overestimator",1,"1","2","0",0.556608,45,"sub-001",1,1,NA,1,0,1,1,NA,1,125,125,125,125,12,"0","sub-001",45,61
"126",21,"underestimator",666.3200349,"666.8014162","None",160,154,"overestimator",1,"2","1","1",0.416717,70,"sub-001",1,1,NA,1,0,0,1,NA,1,126,126,126,126,21,"1","sub-001",66,70
"127",34,"underestimator",670.7436589,"672.0259974","None",168,175,"overestimator",1,"3","4","1",1.2118769,36,"sub-001",4,6,NA,0,0,0,-1,NA,0,127,127,127,127,34,"1","sub-001",32,36
"128",13,"underestimator",675.8115894,"676.4293989","None",128,175,"overestimator",1,"1","3","0",0.5538585,81,"sub-001",1,2,1,NA,0,1,NA,1,NA,128,128,128,128,13,"0","sub-001",81,48
"129",42,"underestimator",680.2356269,"681.7263093","None",130,140,"overestimator",1,"4","2","1",1.4249596,56,"sub-001",2,5,1,NA,0,0,NA,1,NA,129,129,129,129,42,"1","sub-001",38,56
"130",24,"underestimator",685.2258618,"686.5315817","None",129,159,"overestimator",1,"2","4","0",1.2401356,63,"sub-001",2,5,1,NA,0,1,NA,1,NA,130,130,130,130,24,"0","sub-001",63,38
"131",21,"underestimator",690.534159,"691.0684211","None",171,151,"overestimator",1,"2","1","1",0.4684504,71,"sub-001",1,1,NA,1,0,0,1,NA,1,131,131,131,131,21,"1","sub-001",55,71
"132",31,"underestimator",694.6355616,"695.1274499","None",126,175,"overestimator",1,"3","1","1",0.428874,73,"sub-001",1,2,1,NA,0,0,NA,1,NA,132,132,132,132,31,"1","sub-001",41,73
"133",23,"underestimator",698.9360846,"699.7196361","None",130,132,"overestimator",1,"2","3","0",0.7168911,54,"sub-001",2,4,1,NA,0,1,NA,1,NA,133,133,133,133,23,"0","sub-001",54,34
"134",32,"underestimator",703.3029201,"704.3034485","None",148,151,"overestimator",1,"3","2","1",0.937037,56,"sub-001",2,4,1,NA,0,0,NA,1,NA,134,134,134,134,32,"1","sub-001",61,56
"135",24,"underestimator",708.1867263,"709.104027","None",161,132,"overestimator",1,"2","4","0",0.8523265,50,"sub-001",2,5,1,NA,0,1,NA,1,NA,135,135,135,135,24,"0","sub-001",50,42
"136",13,"underestimator",730.5519103,"731.5634582","None",131,162,"overestimator",1,"1","3","0",0.9477853,97,"sub-001",1,2,1,NA,0,1,NA,1,NA,136,136,136,136,13,"0","sub-001",97,45
"137",23,"underestimator",735.3758269,"736.2478229","None",142,120,"overestimator",1,"2","3","0",0.8085451,57,"sub-001",2,4,1,NA,0,1,NA,1,NA,137,137,137,137,23,"0","sub-001",57,54
"138",21,"underestimator",739.8924189,"740.4533772","None",168,144,"overestimator",1,"2","1","1",0.496857,75,"sub-001",1,1,NA,1,0,0,1,NA,1,138,138,138,138,21,"1","sub-001",61,75
"139",31,"underestimator",743.923992,"744.6309395","None",122,135,"overestimator",1,"3","1","1",0.6385987,79,"sub-001",1,2,1,NA,0,0,NA,1,NA,139,139,139,139,31,"1","sub-001",62,79
"140",32,"underestimator",748.3677234,"749.3920232","None",161,157,"overestimator",1,"3","2","1",0.9619695,54,"sub-001",2,4,1,NA,0,0,NA,1,NA,140,140,140,140,32,"1","sub-001",41,54
"141",21,"underestimator",753.1514663,"754.0448561","None",139,173,"overestimator",1,"2","1","1",0.8286851,54,"sub-001",1,1,NA,1,0,0,1,NA,1,141,141,141,141,21,"1","sub-001",66,54
"142",21,"underestimator",757.883045,"758.3859833","None",135,123,"overestimator",1,"2","1","1",0.4355093,59,"sub-001",1,1,NA,1,0,0,1,NA,1,142,142,142,142,21,"1","sub-001",51,59
"143",31,"underestimator",761.8991514,"762.4259848","None",145,174,"overestimator",1,"3","1","1",0.4626429,66,"sub-001",1,2,1,NA,0,0,NA,1,NA,143,143,143,143,31,"1","sub-001",33,66
"144",41,"underestimator",766.4660427,"766.9812763","None",161,151,"overestimator",1,"4","1","1",0.4508207,77,"sub-001",1,3,1,NA,0,0,NA,1,NA,144,144,144,144,41,"1","sub-001",41,77
"145",23,"underestimator",770.8078377,"771.5897605","None",155,174,"overestimator",1,"2","3","0",0.7181179,56,"sub-001",2,4,1,NA,0,1,NA,1,NA,145,145,145,145,23,"0","sub-001",56,58
"146",42,"underestimator",775.3739685,"776.0757604","None",129,156,"overestimator",1,"4","2","1",0.6375947,52,"sub-001",2,5,1,NA,0,0,NA,1,NA,146,146,146,146,42,"1","sub-001",46,52
"147",24,"underestimator",779.9935671,"780.8389895","None",164,155,"overestimator",1,"2","4","0",0.7841353,57,"sub-001",2,5,1,NA,0,1,NA,1,NA,147,147,147,147,24,"0","sub-001",57,42
"148",21,"underestimator",784.7982911,"785.313786","None",169,120,"overestimator",1,"2","1","1",0.4514002,98,"sub-001",1,1,NA,1,0,0,1,NA,1,148,148,148,148,21,"1","sub-001",56,98
"149",41,"underestimator",788.7314083,"789.2483385","None",138,139,"overestimator",1,"4","1","1",0.4522581,81,"sub-001",1,3,1,NA,0,0,NA,1,NA,149,149,149,149,41,"1","sub-001",37,81
"150",13,"underestimator",792.8824645,"793.4143598","None",145,143,"overestimator",1,"1","3","0",0.4691007,57,"sub-001",1,2,1,NA,0,1,NA,1,NA,150,150,150,150,13,"0","sub-001",57,52
"151",13,"underestimator",797.2985189,"797.8432388","None",169,128,"overestimator",1,"1","3","0",0.4779963,80,"sub-001",1,2,1,NA,0,1,NA,1,NA,151,151,151,151,13,"0","sub-001",80,53
"152",31,"underestimator",801.5326981,"801.9942467","None",159,178,"overestimator",1,"3","1","1",0.3964222,70,"sub-001",1,2,1,NA,0,0,NA,1,NA,152,152,152,152,31,"1","sub-001",51,70
"153",24,"underestimator",805.7566229,"807.0331757","None",122,157,"overestimator",1,"2","4","0",1.2123194,55,"sub-001",2,5,1,NA,0,1,NA,1,NA,153,153,153,153,24,"0","sub-001",55,39
"154",43,"underestimator",811.013956,"811.9875369","None",169,141,"overestimator",1,"4","3","0",0.9094059,39,"sub-001",4,6,NA,0,0,1,-1,NA,0,154,154,154,154,43,"0","sub-001",39,41
"155",43,"underestimator",815.7797353,"816.6055771","None",162,146,"overestimator",1,"4","3","0",0.7590502,34,"sub-001",4,6,NA,0,0,1,-1,NA,0,155,155,155,155,43,"0","sub-001",34,57
"156",42,"underestimator",820.539629,"821.7310662","None",175,178,"overestimator",1,"4","2","1",1.1278875,60,"sub-001",2,5,1,NA,0,0,NA,1,NA,156,156,156,156,42,"1","sub-001",45,60
"157",21,"underestimator",825.8889732,"826.7069525","None",167,152,"overestimator",1,"2","1","1",0.7534981,67,"sub-001",1,1,NA,1,0,0,1,NA,1,157,157,157,157,21,"1","sub-001",50,67
"158",13,"underestimator",830.2551152,"830.9828062","None",123,161,"overestimator",1,"1","3","0",0.6611523,87,"sub-001",1,2,1,NA,0,1,NA,1,NA,158,158,158,158,13,"0","sub-001",87,60
"159",14,"underestimator",834.6389715,"835.3272322","None",126,132,"overestimator",1,"1","4","0",0.6253685,49,"sub-001",1,3,1,NA,0,1,NA,1,NA,159,159,159,159,14,"0","sub-001",49,38
"160",43,"underestimator",838.7640451,"839.9282641","None",128,153,"overestimator",1,"4","3","0",1.1012857,37,"sub-001",4,6,NA,0,0,1,-1,NA,0,160,160,160,160,43,"0","sub-001",37,31
"161",42,"underestimator",843.6060034,"844.2736777","None",137,170,"overestimator",1,"4","2","1",0.6034524,63,"sub-001",2,5,1,NA,0,0,NA,1,NA,161,161,161,161,42,"1","sub-001",31,63
"162",34,"underestimator",848.1200895,"848.9948377","None",141,130,"overestimator",1,"3","4","1",0.808742,42,"sub-001",4,6,NA,0,0,0,-1,NA,0,162,162,162,162,34,"1","sub-001",33,42
"163",41,"underestimator",852.50483,"853.2610691","None",137,127,"overestimator",1,"4","1","1",0.6923076,57,"sub-001",1,3,1,NA,0,0,NA,1,NA,163,163,163,163,41,"1","sub-001",38,57
"164",43,"underestimator",856.7966565,"857.9144896","None",144,178,"overestimator",1,"4","3","0",1.0516589,38,"sub-001",4,6,NA,0,0,1,-1,NA,0,164,164,164,164,43,"0","sub-001",38,28
"165",23,"underestimator",861.8862325,"862.8119151","None",148,121,"overestimator",1,"2","3","0",0.8616892,58,"sub-001",2,4,1,NA,0,1,NA,1,NA,165,165,165,165,23,"0","sub-001",58,68
"166",42,"underestimator",866.4531527,"867.2697343","None",165,165,"overestimator",1,"4","2","1",0.7524287,55,"sub-001",2,5,1,NA,0,0,NA,1,NA,166,166,166,166,42,"1","sub-001",39,55
"167",32,"underestimator",871.1530845,"872.0566364","None",149,131,"overestimator",1,"3","2","1",0.8346691,61,"sub-001",2,4,1,NA,0,0,NA,1,NA,167,167,167,167,32,"1","sub-001",43,61
"168",42,"underestimator",875.6616847,"876.5601541","None",149,172,"overestimator",1,"4","2","1",0.8335996,59,"sub-001",2,5,1,NA,0,0,NA,1,NA,168,168,168,168,42,"1","sub-001",39,59
"169",23,"underestimator",880.5939007,"881.3384988","None",161,161,"overestimator",1,"2","3","0",0.6804495,49,"sub-001",2,4,1,NA,0,1,NA,1,NA,169,169,169,169,23,"0","sub-001",49,24
"170",12,"underestimator",885.1696617,"885.9143321","None",146,166,"overestimator",1,"1","2","1",0.6795903,61,"sub-001",2,1,NA,0,0,0,1,NA,0,170,170,170,170,12,"1","sub-001",68,61
"171",41,"underestimator",889.6876285,"890.4054594","None",134,173,"overestimator",1,"4","1","1",0.6503872,66,"sub-001",1,3,1,NA,0,0,NA,1,NA,171,171,171,171,41,"1","sub-001",42,66
"172",34,"underestimator",894.4877686,"None","896.1279489",165,NA,"overestimator",1,"3","4",NA,NA,30,"sub-001",0,6,NA,NA,0,NA,-1,NA,NA,172,172,172,172,34,"None","sub-001",46,30
"173",24,"underestimator",898.7376546,"899.5153601","None",166,122,"overestimator",1,"2","4","0",0.7146225,54,"sub-001",2,5,1,NA,0,1,NA,1,NA,173,173,173,173,24,"0","sub-001",54,36
"174",41,"underestimator",903.1537496,"903.8177436","None",161,127,"overestimator",1,"4","1","1",0.6001205,80,"sub-001",1,3,1,NA,0,0,NA,1,NA,174,174,174,174,41,"1","sub-001",37,80
"175",24,"underestimator",907.6363329,"908.3861874","None",179,163,"overestimator",1,"2","4","0",0.6823675,49,"sub-001",2,5,1,NA,0,1,NA,1,NA,175,175,175,175,24,"0","sub-001",49,41
"176",32,"underestimator",912.4674803,"913.4346724","None",174,160,"overestimator",1,"3","2","1",0.9040577,50,"sub-001",2,4,1,NA,0,0,NA,1,NA,176,176,176,176,32,"1","sub-001",36,50
"177",34,"underestimator",917.2769765,"918.291131","None",150,135,"overestimator",1,"3","4","1",0.9504407,40,"sub-001",4,6,NA,0,0,0,-1,NA,0,177,177,177,177,34,"1","sub-001",31,40
"178",32,"underestimator",921.8265759,"922.7313401","None",140,175,"overestimator",1,"3","2","1",0.8411113,66,"sub-001",2,4,1,NA,0,0,NA,1,NA,178,178,178,178,32,"1","sub-001",44,66
"179",43,"underestimator",926.4588795,"927.4095446","None",121,156,"overestimator",1,"4","3","0",0.8827439,48,"sub-001",4,6,NA,0,0,1,-1,NA,0,179,179,179,179,43,"0","sub-001",48,33
"180",23,"underestimator",931.4344405,"932.3577062","None",175,126,"overestimator",1,"2","3","0",0.8588212,59,"sub-001",2,4,1,NA,0,1,NA,1,NA,180,180,180,180,23,"0","sub-001",59,30
"181",34,"underestimator",975.3935815,"None","977.0328196",147,NA,"overestimator",2,"3","4",NA,NA,49,"sub-001",0,6,NA,NA,0,NA,-1,NA,NA,1,1,181,1,34,"None","sub-001",50,49
"182",32,"underestimator",979.2731685,"980.4315615","None",122,129,"overestimator",2,"3","2","0",1.0926783,52,"sub-001",3,4,0,NA,0,1,NA,0,NA,2,2,182,2,32,"0","sub-001",52,72
"183",12,"underestimator",984.2653335,"985.6098655","None",179,152,"overestimator",2,"1","2","0",1.2793437,72,"sub-001",1,1,NA,1,0,1,1,NA,1,3,3,183,3,12,"0","sub-001",72,55
"184",14,"underestimator",989.543074,"990.9226771","None",168,127,"overestimator",2,"1","4","1",1.3153202,46,"sub-001",4,3,0,NA,0,0,NA,0,NA,4,4,184,4,14,"1","sub-001",78,46
"185",41,"underestimator",994.607411,"None","996.2392306",164,NA,"overestimator",2,"4","1",NA,NA,70,"sub-001",0,3,0,NA,0,NA,NA,NA,NA,5,5,185,5,41,"None","sub-001",38,70
"186",31,"underestimator",998.7994061,"999.9795073","None",155,137,"overestimator",2,"3","1","0",1.1169315,33,"sub-001",3,2,0,NA,0,1,NA,0,NA,6,6,186,6,31,"0","sub-001",33,66
"187",42,"underestimator",1003.883056,"1005.199642","None",176,130,"overestimator",2,"4","2","0",1.2537472,44,"sub-001",4,5,0,NA,0,1,NA,0,NA,7,7,187,7,42,"0","sub-001",44,59
"188",12,"underestimator",1009.023517,"1010.284131","None",178,138,"overestimator",2,"1","2","0",1.194542,49,"sub-001",1,1,NA,1,0,1,1,NA,1,8,8,188,8,12,"0","sub-001",49,65
"189",13,"underestimator",1013.723247,"1014.480323","None",122,178,"overestimator",2,"1","3","1",0.6924689,39,"sub-001",3,2,0,NA,0,0,NA,0,NA,9,9,189,9,13,"1","sub-001",68,39
"190",32,"underestimator",1018.266578,"1019.426863","None",123,157,"overestimator",2,"3","2","0",1.0950318,46,"sub-001",3,4,0,NA,0,1,NA,0,NA,10,10,190,10,32,"0","sub-001",46,54
"191",34,"underestimator",1023.482026,"1024.050688","None",178,168,"overestimator",2,"3","4","0",0.5005245,65,"sub-001",3,6,NA,1,0,1,-1,NA,1,11,11,191,11,34,"0","sub-001",65,37
"192",41,"underestimator",1028.074022,"None","1029.714302",158,NA,"overestimator",2,"4","1",NA,NA,53,"sub-001",0,3,0,NA,0,NA,NA,NA,NA,12,12,192,12,41,"None","sub-001",34,53
"193",34,"underestimator",1032.381075,"1033.272675","None",174,159,"overestimator",2,"3","4","0",0.8263975,73,"sub-001",3,6,NA,1,0,1,-1,NA,1,13,13,193,13,34,"0","sub-001",73,41
"194",21,"underestimator",1036.87381,"1038.359993","None",121,167,"overestimator",2,"2","1","0",1.4237354,66,"sub-001",2,1,NA,0,0,1,1,NA,0,14,14,194,14,21,"0","sub-001",66,60
"195",34,"underestimator",1042.112637,"1043.199834","None",133,172,"overestimator",2,"3","4","0",1.0224094,43,"sub-001",3,6,NA,1,0,1,-1,NA,1,15,15,195,15,34,"0","sub-001",43,33
"196",42,"underestimator",1047.166208,"1048.134611","None",153,143,"overestimator",2,"4","2","0",0.9055883,28,"sub-001",4,5,0,NA,0,1,NA,0,NA,16,16,196,16,42,"0","sub-001",28,60
"197",24,"underestimator",1051.9908,"1053.412277","None",166,132,"overestimator",2,"2","4","0",1.3604197,62,"sub-001",2,5,1,NA,0,1,NA,1,NA,17,17,197,17,24,"0","sub-001",62,42
"198",42,"underestimator",1057.014547,"1058.405879","None",149,174,"overestimator",2,"4","2","1",1.3248335,66,"sub-001",2,5,1,NA,0,0,NA,1,NA,18,18,198,18,42,"1","sub-001",38,66
"199",32,"underestimator",1062.481097,"1063.711113","None",163,127,"overestimator",2,"3","2","1",1.1643354,54,"sub-001",2,4,1,NA,0,0,NA,1,NA,19,19,199,19,32,"1","sub-001",57,54
"200",23,"underestimator",1067.221722,"1068.70795","None",142,156,"overestimator",2,"2","3","1",1.4198213,43,"sub-001",3,4,0,NA,0,0,NA,0,NA,20,20,200,20,23,"1","sub-001",67,43
"201",24,"underestimator",1072.447292,"1073.608665","None",142,174,"overestimator",2,"2","4","0",1.0916806,54,"sub-001",2,5,1,NA,0,1,NA,1,NA,21,21,201,21,24,"0","sub-001",54,38
"202",24,"underestimator",1077.45607,"1078.607434","None",134,126,"overestimator",2,"2","4","0",1.0859155,60,"sub-001",2,5,1,NA,0,1,NA,1,NA,22,22,202,22,24,"0","sub-001",60,37
"203",24,"underestimator",1081.970782,"1082.649483","None",125,123,"overestimator",2,"2","4","0",0.6120797,68,"sub-001",2,5,1,NA,0,1,NA,1,NA,23,23,203,23,24,"0","sub-001",68,41
"204",12,"underestimator",1086.021983,"1087.48126","None",129,135,"overestimator",2,"1","2","0",1.3937656,81,"sub-001",1,1,NA,1,0,1,1,NA,1,24,24,204,24,12,"0","sub-001",81,64
"205",24,"underestimator",1091.063588,"1092.203946","None",144,152,"overestimator",2,"2","4","0",1.0755762,61,"sub-001",2,5,1,NA,0,1,NA,1,NA,25,25,205,25,24,"0","sub-001",61,40
"206",23,"underestimator",1096.155163,"None","1097.788767",169,NA,"overestimator",2,"2","3",NA,NA,42,"sub-001",0,4,0,NA,0,NA,NA,NA,NA,26,26,206,26,23,"None","sub-001",61,42
"207",14,"underestimator",1100.506114,"1101.691752","None",179,148,"overestimator",2,"1","4","0",1.1192056,47,"sub-001",1,3,1,NA,0,1,NA,1,NA,27,27,207,27,14,"0","sub-001",47,46
"208",41,"underestimator",1105.462889,"1106.261579","None",154,133,"overestimator",2,"4","1","1",0.7316034,65,"sub-001",1,3,1,NA,0,0,NA,1,NA,28,28,208,28,41,"1","sub-001",39,65
"209",24,"underestimator",1109.73762,"1110.644316","None",132,136,"overestimator",2,"2","4","0",0.8416239,52,"sub-001",2,5,1,NA,0,1,NA,1,NA,29,29,209,29,24,"0","sub-001",52,36
"210",31,"underestimator",1114.187751,"1115.082151","None",137,131,"overestimator",2,"3","1","1",0.8288265,62,"sub-001",1,2,1,NA,0,0,NA,1,NA,30,30,210,30,31,"1","sub-001",53,62
"211",14,"underestimator",1118.519527,"1119.065303","None",127,167,"overestimator",2,"1","4","0",0.4787831,75,"sub-001",1,3,1,NA,0,1,NA,1,NA,31,31,211,31,14,"0","sub-001",75,40
"212",21,"underestimator",1122.796682,"1123.617696","None",130,158,"overestimator",2,"2","1","1",0.7552154,75,"sub-001",1,1,NA,1,0,0,1,NA,1,32,32,212,32,21,"1","sub-001",63,75
"213",13,"underestimator",1127.487499,"1128.261075","None",153,161,"overestimator",2,"1","3","0",0.7081337,67,"sub-001",1,2,1,NA,0,1,NA,1,NA,33,33,213,33,13,"0","sub-001",67,23
"214",34,"underestimator",1132.386222,"None","1134.04071",179,NA,"overestimator",2,"3","4",NA,NA,31,"sub-001",0,6,NA,NA,0,NA,-1,NA,NA,34,34,214,34,34,"None","sub-001",35,31
"215",41,"underestimator",1136.611345,"1137.901574","None",157,130,"overestimator",2,"4","1","1",1.2245029,27,"sub-001",1,3,1,NA,0,0,NA,1,NA,35,35,215,35,41,"1","sub-001",45,27
"216",31,"underestimator",1141.393938,"1142.56157","None",135,167,"overestimator",2,"3","1","1",1.099944,74,"sub-001",1,2,1,NA,0,0,NA,1,NA,36,36,216,36,31,"1","sub-001",19,74
"217",41,"underestimator",1146.368798,"1147.041132","None",138,138,"overestimator",2,"4","1","1",0.6032081,84,"sub-001",1,3,1,NA,0,0,NA,1,NA,37,37,217,37,41,"1","sub-001",33,84
"218",23,"underestimator",1150.578795,"1151.949701","None",135,123,"overestimator",2,"2","3","0",1.3056033,63,"sub-001",2,4,1,NA,0,1,NA,1,NA,38,38,218,38,23,"0","sub-001",63,60
"219",23,"underestimator",1155.468323,"1156.173564","None",148,135,"overestimator",2,"2","3","0",0.6390868,62,"sub-001",2,4,1,NA,0,1,NA,1,NA,39,39,219,39,23,"0","sub-001",62,42
"220",32,"underestimator",1159.919158,"1160.798346","None",160,161,"overestimator",2,"3","2","1",0.8131246,70,"sub-001",2,4,1,NA,0,0,NA,1,NA,40,40,220,40,32,"1","sub-001",55,70
"221",12,"underestimator",1164.4853,"1165.040717","None",124,175,"overestimator",2,"1","2","1",0.4870325,67,"sub-001",2,1,NA,0,0,0,1,NA,0,41,41,221,41,12,"1","sub-001",72,67
"222",31,"underestimator",1168.853292,"1169.933804","None",130,140,"overestimator",2,"3","1","1",1.0155351,71,"sub-001",1,2,1,NA,0,0,NA,1,NA,42,42,222,42,31,"1","sub-001",67,71
"223",21,"underestimator",1173.38522,"1174.557214","None",121,168,"overestimator",2,"2","1","0",1.1036704,68,"sub-001",2,1,NA,0,0,1,1,NA,0,43,43,223,43,21,"0","sub-001",68,75
"224",23,"underestimator",1178.352977,"1179.186573","None",136,123,"overestimator",2,"2","3","0",0.7671545,61,"sub-001",2,4,1,NA,0,1,NA,1,NA,44,44,224,44,23,"0","sub-001",61,7
"225",23,"underestimator",1182.497296,"1183.220522","None",121,146,"overestimator",2,"2","3","0",0.655714,63,"sub-001",2,4,1,NA,0,1,NA,1,NA,45,45,225,45,23,"0","sub-001",63,45
"226",12,"underestimator",1205.027358,"1205.956925","None",147,178,"overestimator",2,"1","2","1",0.8631631,65,"sub-001",2,1,NA,0,0,0,1,NA,0,46,46,226,46,12,"1","sub-001",50,65
"227",34,"underestimator",1209.766073,"None","1211.411494",124,NA,"overestimator",2,"3","4",NA,NA,44,"sub-001",0,6,NA,NA,0,NA,-1,NA,NA,47,47,227,47,34,"None","sub-001",20,44
"228",12,"underestimator",1213.774112,"1214.839929","None",136,173,"overestimator",2,"1","2","1",0.9949645,51,"sub-001",2,1,NA,0,0,0,1,NA,0,48,48,228,48,12,"1","sub-001",69,51
"229",34,"underestimator",1218.708002,"1219.95155","None",135,121,"overestimator",2,"3","4","1",1.1781494,45,"sub-001",4,6,NA,0,0,0,-1,NA,0,49,49,229,49,34,"1","sub-001",50,45
"230",32,"underestimator",1223.565932,"1224.497462","None",161,139,"overestimator",2,"3","2","1",0.8662813,70,"sub-001",2,4,1,NA,0,0,NA,1,NA,50,50,230,50,32,"1","sub-001",25,70
"231",31,"underestimator",1227.997083,"1228.638115","None",127,149,"overestimator",2,"3","1","1",0.5762999,76,"sub-001",1,2,1,NA,0,0,NA,1,NA,51,51,231,51,31,"1","sub-001",21,76
"232",32,"underestimator",1232.499618,"1233.877865","None",158,143,"overestimator",2,"3","2","1",1.3110544,62,"sub-001",2,4,1,NA,0,0,NA,1,NA,52,52,232,52,32,"1","sub-001",28,62
"233",21,"underestimator",1237.680882,"1238.642548","None",163,148,"overestimator",2,"2","1","1",0.8949827,68,"sub-001",1,1,NA,1,0,0,1,NA,1,53,53,233,53,21,"1","sub-001",64,68
"234",23,"underestimator",1242.489749,"1243.221635","None",162,142,"overestimator",2,"2","3","0",0.6665217,59,"sub-001",2,4,1,NA,0,1,NA,1,NA,54,54,234,54,23,"0","sub-001",59,42
"235",12,"underestimator",1247.080391,"1248.122168","None",169,141,"overestimator",2,"1","2","0",0.9716925,66,"sub-001",1,1,NA,1,0,1,1,NA,1,55,55,235,55,12,"0","sub-001",66,70
"236",32,"underestimator",1251.782193,"1252.550905","None",145,177,"overestimator",2,"3","2","1",0.7030163,56,"sub-001",2,4,1,NA,0,0,NA,1,NA,56,56,236,56,32,"1","sub-001",56,56
"237",42,"underestimator",1256.415404,"1257.153757","None",132,129,"overestimator",2,"4","2","1",0.6701076,61,"sub-001",2,5,1,NA,0,0,NA,1,NA,57,57,237,57,42,"1","sub-001",46,61
"238",31,"underestimator",1260.640405,"1261.457942","None",137,164,"overestimator",2,"3","1","1",0.7525598,62,"sub-001",1,2,1,NA,0,0,NA,1,NA,58,58,238,58,31,"1","sub-001",11,62
"239",24,"underestimator",1265.44822,"1266.006243","None",160,168,"overestimator",2,"2","4","0",0.4916687,55,"sub-001",2,5,1,NA,0,1,NA,1,NA,59,59,239,59,24,"0","sub-001",55,42
"240",42,"underestimator",1270.156969,"1270.886469","None",178,165,"overestimator",2,"4","2","1",0.6601491,69,"sub-001",2,5,1,NA,0,0,NA,1,NA,60,60,240,60,42,"1","sub-001",40,69
"241",13,"underestimator",1274.797912,"1275.665653","None",147,129,"overestimator",2,"1","3","0",0.8006768,66,"sub-001",1,2,1,NA,0,1,NA,1,NA,61,61,241,61,13,"0","sub-001",66,18
"242",12,"underestimator",1279.446795,"1280.128103","None",174,139,"overestimator",2,"1","2","1",0.6130788,56,"sub-001",2,1,NA,0,0,0,1,NA,0,62,62,242,62,12,"1","sub-001",48,56
"243",42,"underestimator",1283.703656,"1284.330578","None",134,132,"overestimator",2,"4","2","1",0.5552085,56,"sub-001",2,5,1,NA,0,0,NA,1,NA,63,63,243,63,42,"1","sub-001",35,56
"244",42,"underestimator",1287.779624,"1288.388597","None",130,137,"overestimator",2,"4","2","1",0.542366,69,"sub-001",2,5,1,NA,0,0,NA,1,NA,64,64,244,64,42,"1","sub-001",40,69
"245",31,"underestimator",1291.807845,"1292.2619","None",120,130,"overestimator",2,"3","1","1",0.3892414,68,"sub-001",1,2,1,NA,0,0,NA,1,NA,65,65,245,65,31,"1","sub-001",36,68
"246",43,"underestimator",1295.877437,"1297.186738","None",149,179,"overestimator",2,"4","3","0",1.2355693,43,"sub-001",4,6,NA,0,0,1,-1,NA,0,66,66,246,66,43,"0","sub-001",43,65
"247",21,"underestimator",1301.220388,"1302.403812","None",150,126,"overestimator",2,"2","1","1",1.1188699,71,"sub-001",1,1,NA,1,0,0,1,NA,1,67,67,247,67,21,"1","sub-001",65,71
"248",13,"underestimator",1305.802505,"1307.196599","None",130,165,"overestimator",2,"1","3","0",1.3294727,78,"sub-001",1,2,1,NA,0,1,NA,1,NA,68,68,248,68,13,"0","sub-001",78,31
"249",34,"underestimator",1310.936867,"None","1312.570261",133,NA,"overestimator",2,"3","4",NA,NA,30,"sub-001",0,6,NA,NA,0,NA,-1,NA,NA,69,69,249,69,34,"None","sub-001",31,30
"250",43,"underestimator",1315.079112,"1316.193309","None",156,128,"overestimator",2,"4","3","1",1.0485906,64,"sub-001",3,6,NA,1,0,0,-1,NA,1,70,70,250,70,43,"1","sub-001",37,64
"251",13,"underestimator",1319.885606,"1320.812369","None",165,123,"overestimator",2,"1","3","0",0.8617114,44,"sub-001",1,2,1,NA,0,1,NA,1,NA,71,71,251,71,13,"0","sub-001",44,30
"252",32,"underestimator",1324.243826,"1325.414092","None",137,174,"overestimator",2,"3","2","1",1.1044564,63,"sub-001",2,4,1,NA,0,0,NA,1,NA,72,72,252,72,32,"1","sub-001",39,63
"253",41,"underestimator",1329.12856,"1330.213979","None",120,158,"overestimator",2,"4","1","1",1.0219455,82,"sub-001",1,3,1,NA,0,0,NA,1,NA,73,73,253,73,41,"1","sub-001",37,82
"254",41,"underestimator",1334.295132,"1334.925421","None",177,142,"overestimator",2,"4","1","1",0.5643871,69,"sub-001",1,3,1,NA,0,0,NA,1,NA,74,74,254,74,41,"1","sub-001",47,69
"255",41,"underestimator",1338.643092,"1339.919386","None",152,136,"overestimator",2,"4","1","1",1.2115886,74,"sub-001",1,3,1,NA,0,0,NA,1,NA,75,75,255,75,41,"1","sub-001",46,74
"256",42,"underestimator",1343.402718,"1344.270395","None",130,176,"overestimator",2,"4","2","1",0.8038804,65,"sub-001",2,5,1,NA,0,0,NA,1,NA,76,76,256,76,42,"1","sub-001",39,65
"257",21,"underestimator",1348.143628,"1348.927204","None",138,176,"overestimator",2,"2","1","1",0.7186826,98,"sub-001",1,1,NA,1,0,0,1,NA,1,77,77,257,77,21,"1","sub-001",60,98
"258",31,"underestimator",1353.069278,"1353.571222","None",168,152,"overestimator",2,"3","1","1",0.4367156,56,"sub-001",1,2,1,NA,0,0,NA,1,NA,78,78,258,78,31,"1","sub-001",42,56
"259",43,"underestimator",1357.420536,"None","1359.077913",157,NA,"overestimator",2,"4","3",NA,NA,27,"sub-001",0,6,NA,NA,0,NA,-1,NA,NA,79,79,259,79,43,"None","sub-001",43,27
"260",43,"underestimator",1361.695608,"1362.237317","None",159,136,"overestimator",2,"4","3","1",0.4774475,26,"sub-001",3,6,NA,1,0,0,-1,NA,1,80,80,260,80,43,"1","sub-001",50,26
"261",32,"underestimator",1365.834327,"1366.942068","None",143,151,"overestimator",2,"3","2","1",1.0425557,71,"sub-001",2,4,1,NA,0,0,NA,1,NA,81,81,261,81,32,"1","sub-001",33,71
"262",14,"underestimator",1370.801982,"1371.658723","None",160,173,"overestimator",2,"1","4","0",0.7908492,65,"sub-001",1,3,1,NA,0,1,NA,1,NA,82,82,262,82,14,"0","sub-001",65,38
"263",41,"underestimator",1375.819631,"1376.831513","None",169,125,"overestimator",2,"4","1","1",0.9468513,63,"sub-001",1,3,1,NA,0,0,NA,1,NA,83,83,263,83,41,"1","sub-001",33,63
"264",31,"underestimator",1380.569559,"1381.049594","None",173,134,"overestimator",2,"3","1","1",0.4154214,67,"sub-001",1,2,1,NA,0,0,NA,1,NA,84,84,264,84,31,"1","sub-001",45,67
"265",23,"underestimator",1384.87638,"1386.053822","None",169,149,"overestimator",2,"2","3","0",1.1106433,52,"sub-001",2,4,1,NA,0,1,NA,1,NA,85,85,265,85,23,"0","sub-001",52,44
"266",14,"underestimator",1389.835938,"1390.932688","None",152,144,"overestimator",2,"1","4","0",1.030442,72,"sub-001",1,3,1,NA,0,1,NA,1,NA,86,86,266,86,14,"0","sub-001",72,46
"267",21,"underestimator",1394.879542,"None","1396.533017",177,NA,"overestimator",2,"2","1",NA,NA,71,"sub-001",0,1,NA,NA,0,NA,1,NA,NA,87,87,267,87,21,"None","sub-001",71,71
"268",42,"underestimator",1399.209776,"1400.40233","None",176,171,"overestimator",2,"4","2","1",1.1245004,57,"sub-001",2,5,1,NA,0,0,NA,1,NA,88,88,268,88,42,"1","sub-001",36,57
"269",42,"underestimator",1404.426454,"1405.232163","None",150,148,"overestimator",2,"4","2","1",0.7407437,52,"sub-001",2,5,1,NA,0,0,NA,1,NA,89,89,269,89,42,"1","sub-001",47,52
"270",23,"underestimator",1409.117235,"1410.024704","None",165,176,"overestimator",2,"2","3","0",0.8417579,62,"sub-001",2,4,1,NA,0,1,NA,1,NA,90,90,270,90,23,"0","sub-001",62,30
"271",21,"underestimator",1431.84307,"1432.63231","None",124,178,"overestimator",2,"2","1","0",0.7238899,58,"sub-001",2,1,NA,0,0,1,1,NA,0,91,91,271,91,21,"0","sub-001",58,49
"272",13,"underestimator",1436.600655,"1437.582043","None",144,164,"overestimator",2,"1","3","0",0.9164444,91,"sub-001",1,2,1,NA,0,1,NA,1,NA,92,92,272,92,13,"0","sub-001",91,54
"273",34,"underestimator",1441.332421,"None","1442.956846",134,NA,"overestimator",2,"3","4",NA,NA,41,"sub-001",0,6,NA,NA,0,NA,-1,NA,NA,93,93,273,93,34,"None","sub-001",43,41
"274",14,"underestimator",1445.340704,"1446.311225","None",136,148,"overestimator",2,"1","4","0",0.9038807,93,"sub-001",1,3,1,NA,0,1,NA,1,NA,94,94,274,94,14,"0","sub-001",93,38
"275",43,"underestimator",1449.86656,"1451.401542","None",127,130,"overestimator",2,"4","3","0",1.469019,42,"sub-001",4,6,NA,0,0,1,-1,NA,0,95,95,275,95,43,"0","sub-001",42,73
"276",12,"underestimator",1454.981928,"1455.823467","None",149,128,"overestimator",2,"1","2","1",0.7756114,58,"sub-001",2,1,NA,0,0,0,1,NA,0,96,96,276,96,12,"1","sub-001",64,58
"277",14,"underestimator",1459.50793,"1460.139523","None",162,169,"overestimator",2,"1","4","0",0.5654389,73,"sub-001",1,3,1,NA,0,1,NA,1,NA,97,97,277,97,14,"0","sub-001",73,40
"278",32,"underestimator",1464.249778,"1465.018221","None",171,125,"overestimator",2,"3","2","1",0.7031975,53,"sub-001",2,4,1,NA,0,0,NA,1,NA,98,98,278,98,32,"1","sub-001",38,53
"279",31,"underestimator",1468.773247,"1469.780966","None",174,173,"overestimator",2,"3","1","1",0.9413226,60,"sub-001",1,2,1,NA,0,0,NA,1,NA,99,99,279,99,31,"1","sub-001",14,60
"280",14,"underestimator",1473.736774,"1474.413955","None",147,157,"overestimator",2,"1","4","0",0.611788,51,"sub-001",1,3,1,NA,0,1,NA,1,NA,100,100,280,100,14,"0","sub-001",51,50
"281",41,"underestimator",1478.457137,"1478.957913","None",176,159,"overestimator",2,"4","1","1",0.4327372,84,"sub-001",1,3,1,NA,0,0,NA,1,NA,101,101,281,101,41,"1","sub-001",45,84
"282",42,"underestimator",1482.665949,"1483.405592","None",135,127,"overestimator",2,"4","2","1",0.673151,66,"sub-001",2,5,1,NA,0,0,NA,1,NA,102,102,282,102,42,"1","sub-001",36,66
"283",13,"underestimator",1486.798126,"1487.971578","None",128,165,"overestimator",2,"1","3","0",1.1079501,79,"sub-001",1,2,1,NA,0,1,NA,1,NA,103,103,283,103,13,"0","sub-001",79,38
"284",43,"underestimator",1492.033478,"1493.233074","None",170,134,"overestimator",2,"4","3","1",1.1319813,43,"sub-001",3,6,NA,1,0,0,-1,NA,1,104,104,284,104,43,"1","sub-001",41,43
"285",31,"underestimator",1496.822252,"1497.783907","None",143,176,"overestimator",2,"3","1","1",0.8969555,62,"sub-001",1,2,1,NA,0,0,NA,1,NA,105,105,285,105,31,"1","sub-001",46,62
"286",13,"underestimator",1501.940055,"1502.531959","None",168,146,"overestimator",2,"1","3","0",0.525805,63,"sub-001",1,2,1,NA,0,1,NA,1,NA,106,106,286,106,13,"0","sub-001",63,38
"287",13,"underestimator",1506.280065,"1506.773157","None",151,156,"overestimator",2,"1","3","0",0.4247287,72,"sub-001",1,2,1,NA,0,1,NA,1,NA,107,107,287,107,13,"0","sub-001",72,48
"288",14,"underestimator",1510.772867,"1511.469771","None",171,171,"overestimator",2,"1","4","0",0.6311554,76,"sub-001",1,3,1,NA,0,1,NA,1,NA,108,108,288,108,14,"0","sub-001",76,40
"289",43,"underestimator",1515.237907,"1516.51956","None",129,177,"overestimator",2,"4","3","1",1.2154636,54,"sub-001",3,6,NA,1,0,0,-1,NA,1,109,109,289,109,43,"1","sub-001",34,54
"290",32,"underestimator",1520.604558,"1521.578152","None",160,141,"overestimator",2,"3","2","1",0.9035357,63,"sub-001",2,4,1,NA,0,0,NA,1,NA,110,110,290,110,32,"1","sub-001",49,63
"291",43,"underestimator",1525.273348,"1526.677663","None",147,137,"overestimator",2,"4","3","1",1.337736,25,"sub-001",3,6,NA,1,0,0,-1,NA,1,111,111,291,111,43,"1","sub-001",39,25
"292",23,"underestimator",1530.230057,"1531.119597","None",137,143,"overestimator",2,"2","3","0",0.8251332,61,"sub-001",2,4,1,NA,0,1,NA,1,NA,112,112,292,112,23,"0","sub-001",61,43
"293",43,"underestimator",1534.853518,"1535.793679","None",152,121,"overestimator",2,"4","3","0",0.870648,33,"sub-001",4,6,NA,0,0,1,-1,NA,0,113,113,293,113,43,"0","sub-001",33,48
"294",13,"underestimator",1539.288722,"1540.469036","None",146,157,"overestimator",2,"1","3","0",1.1144992,69,"sub-001",1,2,1,NA,0,1,NA,1,NA,114,114,294,114,13,"0","sub-001",69,56
"295",24,"underestimator",1544.237365,"1545.505751","None",142,123,"overestimator",2,"2","4","0",1.1995797,56,"sub-001",2,5,1,NA,0,1,NA,1,NA,115,115,295,115,24,"0","sub-001",56,48
"296",41,"underestimator",1549.055005,"1549.759415","None",150,153,"overestimator",2,"4","1","1",0.636505,73,"sub-001",1,3,1,NA,0,0,NA,1,NA,116,116,296,116,41,"1","sub-001",44,73
"297",24,"underestimator",1553.363045,"1554.201075","None",128,141,"overestimator",2,"2","4","0",0.7723261,65,"sub-001",2,5,1,NA,0,1,NA,1,NA,117,117,297,117,24,"0","sub-001",65,43
"298",41,"underestimator",1557.962599,"1559.245223","None",159,123,"overestimator",2,"4","1","1",1.2162664,62,"sub-001",1,3,1,NA,0,0,NA,1,NA,118,118,298,118,41,"1","sub-001",46,62
"299",23,"underestimator",1562.713272,"1563.846836","None",141,169,"overestimator",2,"2","3","0",1.0677189,62,"sub-001",2,4,1,NA,0,1,NA,1,NA,119,119,299,119,23,"0","sub-001",62,42
"300",23,"underestimator",1567.784134,"1568.700836","None",152,156,"overestimator",2,"2","3","0",0.8491669,62,"sub-001",2,4,1,NA,0,1,NA,1,NA,120,120,300,120,23,"0","sub-001",62,19
"301",43,"underestimator",1572.427758,"1573.749947","None",137,156,"overestimator",2,"4","3","0",1.2568034,38,"sub-001",4,6,NA,0,0,1,-1,NA,0,121,121,301,121,43,"0","sub-001",38,47
"302",41,"underestimator",1577.721013,"1578.378176","None",170,170,"overestimator",2,"4","1","1",0.5887945,93,"sub-001",1,3,1,NA,0,0,NA,1,NA,122,122,302,122,41,"1","sub-001",41,93
"303",31,"underestimator",1582.301169,"1582.909942","None",147,151,"overestimator",2,"3","1","1",0.5395642,52,"sub-001",1,2,1,NA,0,0,NA,1,NA,123,123,303,123,31,"1","sub-001",33,52
"304",21,"underestimator",1586.452251,"1586.92374","None",122,148,"overestimator",2,"2","1","1",0.4034899,62,"sub-001",1,1,NA,1,0,0,1,NA,1,124,124,304,124,21,"1","sub-001",51,62
"305",34,"underestimator",1590.828037,"1592.306944","None",170,133,"overestimator",2,"3","4","1",1.413521,41,"sub-001",4,6,NA,0,0,0,-1,NA,0,125,125,305,125,34,"1","sub-001",52,41
"306",31,"underestimator",1595.960603,"1596.926173","None",148,162,"overestimator",2,"3","1","1",0.8992998,67,"sub-001",1,2,1,NA,0,0,NA,1,NA,126,126,306,126,31,"1","sub-001",25,67
"307",12,"underestimator",1600.943508,"1601.894198","None",168,163,"overestimator",2,"1","2","1",0.883148,60,"sub-001",2,1,NA,0,0,0,1,NA,0,127,127,307,127,12,"1","sub-001",87,60
"308",12,"underestimator",1605.560532,"1606.437932","None",125,156,"overestimator",2,"1","2","0",0.8117568,64,"sub-001",1,1,NA,1,0,1,1,NA,1,128,128,308,128,12,"0","sub-001",64,61
"309",21,"underestimator",1610.076294,"1610.919017","None",130,131,"overestimator",2,"2","1","1",0.7751467,74,"sub-001",1,1,NA,1,0,0,1,NA,1,129,129,309,129,21,"1","sub-001",60,74
"310",24,"underestimator",1614.303415,"1615.296828","None",120,129,"overestimator",2,"2","4","0",0.9263483,60,"sub-001",2,5,1,NA,0,1,NA,1,NA,130,130,310,130,24,"0","sub-001",60,46
"311",13,"underestimator",1618.711002,"1619.825614","None",123,123,"overestimator",2,"1","3","0",1.0484776,64,"sub-001",1,2,1,NA,0,1,NA,1,NA,131,131,311,131,13,"0","sub-001",64,23
"312",31,"underestimator",1623.385916,"1624.121671","None",153,164,"overestimator",2,"3","1","1",0.6700891,48,"sub-001",1,2,1,NA,0,0,NA,1,NA,132,132,312,132,31,"1","sub-001",26,48
"313",43,"underestimator",1627.960109,"None","1629.573532",146,NA,"overestimator",2,"4","3",NA,NA,48,"sub-001",0,6,NA,NA,0,NA,-1,NA,NA,133,133,313,133,43,"None","sub-001",41,48
"314",12,"underestimator",1631.826286,"1633.0247","None",124,162,"overestimator",2,"1","2","0",1.133276,65,"sub-001",1,1,NA,1,0,1,1,NA,1,134,134,314,134,12,"0","sub-001",65,64
"315",23,"underestimator",1637.077654,"1638.290325","None",166,143,"overestimator",2,"2","3","0",1.1483534,60,"sub-001",2,4,1,NA,0,1,NA,1,NA,135,135,315,135,23,"0","sub-001",60,38
"316",34,"underestimator",1659.849327,"1660.982636","None",129,168,"overestimator",2,"3","4","0",1.066752,54,"sub-001",3,6,NA,1,0,1,-1,NA,1,136,136,316,136,34,"0","sub-001",54,37
"317",14,"underestimator",1664.930563,"1665.902012","None",154,143,"overestimator",2,"1","4","0",0.9028622,65,"sub-001",1,3,1,NA,0,1,NA,1,NA,137,137,317,137,14,"0","sub-001",65,42
"318",34,"underestimator",1669.78199,"1671.12658","None",170,136,"overestimator",2,"3","4","0",1.2783282,61,"sub-001",3,6,NA,1,0,1,-1,NA,1,138,138,318,138,34,"0","sub-001",61,42
"319",23,"underestimator",1674.964529,"1676.180237","None",172,122,"overestimator",2,"2","3","0",1.1494454,60,"sub-001",2,4,1,NA,0,1,NA,1,NA,139,139,319,139,23,"0","sub-001",60,65
"320",21,"underestimator",1679.573576,"1680.713265","None",133,175,"overestimator",2,"2","1","1",1.0748241,63,"sub-001",1,1,NA,1,0,0,1,NA,1,140,140,320,140,21,"1","sub-001",62,63
"321",34,"underestimator",1684.590399,"1685.773937","None",129,170,"overestimator",2,"3","4","0",1.1169064,35,"sub-001",3,6,NA,1,0,1,-1,NA,1,141,141,321,141,34,"0","sub-001",35,36
"322",14,"underestimator",1689.901728,"1690.691611","None",170,150,"overestimator",2,"1","4","0",0.7224786,78,"sub-001",1,3,1,NA,0,1,NA,1,NA,142,142,322,142,14,"0","sub-001",78,31
"323",14,"underestimator",1694.356928,"1695.062741","None",137,147,"overestimator",2,"1","4","0",0.6396259,64,"sub-001",1,3,1,NA,0,1,NA,1,NA,143,143,323,143,14,"0","sub-001",64,38
"324",43,"underestimator",1698.883402,"1700.081098","None",149,143,"overestimator",2,"4","3","1",1.1315263,21,"sub-001",3,6,NA,1,0,0,-1,NA,1,144,144,324,144,43,"1","sub-001",52,21
"325",42,"underestimator",1703.623518,"1704.720402","None",129,149,"overestimator",2,"4","2","1",1.0325814,53,"sub-001",2,5,1,NA,0,0,NA,1,NA,145,145,325,145,42,"1","sub-001",33,53
"326",13,"underestimator",1708.537273,"1709.661965","None",156,127,"overestimator",2,"1","3","1",1.0534614,34,"sub-001",3,2,0,NA,0,0,NA,0,NA,146,146,326,146,13,"1","sub-001",52,34
"327",13,"underestimator",1713.466648,"1714.223618","None",176,171,"overestimator",2,"1","3","0",0.6896707,63,"sub-001",1,2,1,NA,0,1,NA,1,NA,147,147,327,147,13,"0","sub-001",63,52
"328",43,"underestimator",1718.274559,"1719.50338","None",163,151,"overestimator",2,"4","3","1",1.1629369,37,"sub-001",3,6,NA,1,0,0,-1,NA,1,148,148,328,148,43,"1","sub-001",41,37
"329",21,"underestimator",1723.248347,"1724.165738","None",145,141,"overestimator",2,"2","1","1",0.8498172,61,"sub-001",1,1,NA,1,0,0,1,NA,1,149,149,329,149,21,"1","sub-001",58,61
"330",21,"underestimator",1727.70784,"1728.315695","None",129,149,"overestimator",2,"2","1","1",0.5424275,50,"sub-001",1,1,NA,1,0,0,1,NA,1,150,150,330,150,21,"1","sub-001",61,50
"331",13,"underestimator",1732.181073,"1732.838718","None",160,152,"overestimator",2,"1","3","0",0.5908209,76,"sub-001",1,2,1,NA,0,1,NA,1,NA,151,151,331,151,13,"0","sub-001",76,47
"332",14,"underestimator",1736.59578,"1737.350381","None",146,137,"overestimator",2,"1","4","0",0.686087,74,"sub-001",1,3,1,NA,0,1,NA,1,NA,152,152,332,152,14,"0","sub-001",74,40
"333",24,"underestimator",1740.75381,"1741.812329","None",120,165,"overestimator",2,"2","4","0",0.991936,58,"sub-001",2,5,1,NA,0,1,NA,1,NA,153,153,333,153,24,"0","sub-001",58,35
"334",14,"underestimator",1745.631007,"1746.652513","None",141,126,"overestimator",2,"1","4","0",0.9557164,78,"sub-001",1,3,1,NA,0,1,NA,1,NA,154,154,334,154,14,"0","sub-001",78,40
"335",43,"underestimator",1750.021633,"1751.272057","None",125,163,"overestimator",2,"4","3","1",1.1845064,63,"sub-001",3,6,NA,1,0,0,-1,NA,1,155,155,335,155,43,"1","sub-001",39,63
"336",12,"underestimator",1755.155404,"1755.882085","None",148,147,"overestimator",2,"1","2","0",0.6584205,48,"sub-001",1,1,NA,1,0,1,1,NA,1,156,156,336,156,12,"0","sub-001",48,71
"337",42,"underestimator",1759.70501,"1760.796657","None",160,133,"overestimator",2,"4","2","1",1.0253698,49,"sub-001",2,5,1,NA,0,0,NA,1,NA,157,157,337,157,42,"1","sub-001",45,49
"338",41,"underestimator",1764.263881,"1765.056497","None",127,179,"overestimator",2,"4","1","1",0.7273618,93,"sub-001",1,3,1,NA,0,0,NA,1,NA,158,158,338,158,41,"1","sub-001",44,93
"339",42,"underestimator",1768.83894,"1769.796581","None",122,145,"overestimator",2,"4","2","1",0.8912814,58,"sub-001",2,5,1,NA,0,0,NA,1,NA,159,159,339,159,42,"1","sub-001",41,58
"340",13,"underestimator",1773.753395,"1774.511203","None",177,132,"overestimator",2,"1","3","0",0.6911297,56,"sub-001",1,2,1,NA,0,1,NA,1,NA,160,160,340,160,13,"0","sub-001",56,35
"341",12,"underestimator",1777.969537,"1778.963148","None",130,122,"overestimator",2,"1","2","0",0.9267386,48,"sub-001",1,1,NA,1,0,1,1,NA,1,161,161,341,161,12,"0","sub-001",48,58
"342",24,"underestimator",1782.545426,"1783.764751","None",156,160,"overestimator",2,"2","4","0",1.1536418,63,"sub-001",2,5,1,NA,0,1,NA,1,NA,162,162,342,162,24,"0","sub-001",63,38
"343",32,"underestimator",1787.520088,"1788.46846","None",138,133,"overestimator",2,"3","2","1",0.8826205,61,"sub-001",2,4,1,NA,0,0,NA,1,NA,163,163,343,163,32,"1","sub-001",20,61
"344",23,"underestimator",1792.052916,"1792.73384","None",143,148,"overestimator",2,"2","3","0",0.6165292,61,"sub-001",2,4,1,NA,0,1,NA,1,NA,164,164,344,164,23,"0","sub-001",61,16
"345",31,"underestimator",1796.718286,"1797.503353","None",176,124,"overestimator",2,"3","1","1",0.7186764,79,"sub-001",1,2,1,NA,0,0,NA,1,NA,165,165,345,165,31,"1","sub-001",18,79
"346",21,"underestimator",1801.102568,"1801.751153","None",155,163,"overestimator",2,"2","1","1",0.5828255,72,"sub-001",1,1,NA,1,0,0,1,NA,1,166,166,346,166,21,"1","sub-001",54,72
"347",32,"underestimator",1805.444642,"1806.733939","None",127,124,"overestimator",2,"3","2","1",1.223427,56,"sub-001",2,4,1,NA,0,0,NA,1,NA,167,167,347,167,32,"1","sub-001",17,56
"348",41,"underestimator",1810.127397,"1811.136133","None",130,164,"overestimator",2,"4","1","1",0.9411436,68,"sub-001",1,3,1,NA,0,0,NA,1,NA,168,168,348,168,41,"1","sub-001",36,68
"349",34,"underestimator",1814.91927,"1816.134616","None",138,162,"overestimator",2,"3","4","0",1.1490761,27,"sub-001",3,6,NA,1,0,1,-1,NA,1,169,169,349,169,34,"0","sub-001",27,42
"350",34,"underestimator",1820.217777,"1821.440867","None",174,142,"overestimator",2,"3","4","0",1.1547441,30,"sub-001",3,6,NA,1,0,1,-1,NA,1,170,170,350,170,34,"0","sub-001",30,37
"351",14,"underestimator",1825.110591,"1826.136996","None",146,140,"overestimator",2,"1","4","0",0.9595287,78,"sub-001",1,3,1,NA,0,1,NA,1,NA,171,171,351,171,14,"0","sub-001",78,38
"352",32,"underestimator",1829.935129,"1830.828694","None",163,148,"overestimator",2,"3","2","1",0.8276261,60,"sub-001",2,4,1,NA,0,0,NA,1,NA,172,172,352,172,32,"1","sub-001",51,60
"353",21,"underestimator",1834.666871,"1835.460655","None",161,150,"overestimator",2,"2","1","1",0.7267264,66,"sub-001",1,1,NA,1,0,0,1,NA,1,173,173,353,173,21,"1","sub-001",56,66
"354",24,"underestimator",1839.143898,"1840.315511","None",141,131,"overestimator",2,"2","4","0",1.1053798,65,"sub-001",2,5,1,NA,0,1,NA,1,NA,174,174,354,174,24,"0","sub-001",65,34
"355",32,"underestimator",1844.009304,"1844.763218","None",160,167,"overestimator",2,"3","2","1",0.6876694,68,"sub-001",2,4,1,NA,0,0,NA,1,NA,175,175,355,175,32,"1","sub-001",13,68
"356",24,"underestimator",1848.567619,"1849.212114","None",134,143,"overestimator",2,"2","4","0",0.5798829,64,"sub-001",2,5,1,NA,0,1,NA,1,NA,176,176,356,176,24,"0","sub-001",64,31
"357",42,"underestimator",1852.942266,"1853.623324","None",153,122,"overestimator",2,"4","2","1",0.615452,48,"sub-001",2,5,1,NA,0,0,NA,1,NA,177,177,357,177,42,"1","sub-001",38,48
"358",12,"underestimator",1856.984549,"1857.770009","None",127,156,"overestimator",2,"1","2","1",0.7179597,60,"sub-001",2,1,NA,0,0,0,1,NA,0,178,178,358,178,12,"1","sub-001",82,60
"359",24,"underestimator",1861.684112,"1862.611663","None",161,140,"overestimator",2,"2","4","0",0.8617052,59,"sub-001",2,5,1,NA,0,1,NA,1,NA,179,179,359,179,24,"0","sub-001",59,32
"360",43,"underestimator",1866.276064,"1867.582347","None",146,148,"overestimator",2,"4","3","1",1.2405879,18,"sub-001",3,6,NA,1,0,0,-1,NA,1,180,180,360,180,43,"1","sub-001",43,18
"361",42,"underestimator",1928.503485,"1929.88018","None",148,121,"overestimator",3,"4","2","1",1.3025328,49,"sub-001",2,5,1,NA,0,0,NA,1,NA,1,1,361,1,42,"1","sub-001",44,49
"362",21,"underestimator",1933.359445,"1934.300055","None",140,173,"overestimator",3,"2","1","0",0.8707598,55,"sub-001",2,1,NA,0,0,1,1,NA,0,2,2,362,2,21,"0","sub-001",55,88
"363",12,"underestimator",1938.189475,"1939.363916","None",140,158,"overestimator",3,"1","2","1",1.1093575,62,"sub-001",2,1,NA,0,0,0,1,NA,0,3,3,363,3,12,"1","sub-001",62,62
"364",12,"underestimator",1943.023119,"1943.866589","None",128,124,"overestimator",3,"1","2","1",0.7779864,64,"sub-001",2,1,NA,0,0,0,1,NA,0,4,4,364,4,12,"1","sub-001",62,64
"365",41,"underestimator",1947.548009,"1949.037185","None",166,165,"overestimator",3,"4","1","1",1.4244525,44,"sub-001",1,3,1,NA,0,0,NA,1,NA,5,5,365,5,41,"1","sub-001",44,44
"366",21,"underestimator",1952.940256,"1953.940993","None",149,130,"overestimator",3,"2","1","0",0.9350017,57,"sub-001",2,1,NA,0,0,1,1,NA,0,6,6,366,6,21,"0","sub-001",57,98
"367",13,"underestimator",1957.333391,"None","1958.96182",126,NA,"overestimator",3,"1","3",NA,NA,37,"sub-001",0,2,0,NA,0,NA,NA,NA,NA,7,7,367,7,13,"None","sub-001",46,37
"368",41,"underestimator",1961.630579,"None","1963.26911",173,NA,"overestimator",3,"4","1",NA,NA,74,"sub-001",0,3,0,NA,0,NA,NA,NA,NA,8,8,368,8,41,"None","sub-001",37,74
"369",31,"underestimator",1965.854054,"1966.93789","None",164,125,"overestimator",3,"3","1","0",1.0176117,7,"sub-001",3,2,0,NA,0,1,NA,0,NA,9,9,369,9,31,"0","sub-001",7,72
"370",12,"underestimator",1970.604062,"1971.281677","None",163,158,"overestimator",3,"1","2","0",0.6121197,56,"sub-001",1,1,NA,1,0,1,1,NA,1,10,10,370,10,12,"0","sub-001",56,66
"371",24,"underestimator",1975.088082,"1975.689607","None",141,178,"overestimator",3,"2","4","0",0.5275937,48,"sub-001",2,5,1,NA,0,1,NA,1,NA,11,11,371,11,24,"0","sub-001",48,47
"372",41,"underestimator",1979.720727,"1980.931229","None",153,133,"overestimator",3,"4","1","1",1.144725,38,"sub-001",1,3,1,NA,0,0,NA,1,NA,12,12,372,12,41,"1","sub-001",49,38
"373",13,"underestimator",1984.428652,"1985.511028","None",134,173,"overestimator",3,"1","3","0",1.01665,82,"sub-001",1,2,1,NA,0,1,NA,1,NA,13,13,373,13,13,"0","sub-001",82,12
"374",42,"underestimator",1989.395461,"1990.862821","None",141,149,"overestimator",3,"4","2","0",1.4029738,41,"sub-001",4,5,0,NA,0,1,NA,0,NA,14,14,374,14,42,"0","sub-001",41,65
"375",43,"underestimator",1994.644865,"1996.018238","None",149,162,"overestimator",3,"4","3","0",1.3083444,44,"sub-001",4,6,NA,0,0,1,-1,NA,0,15,15,375,15,43,"0","sub-001",44,33
"376",23,"underestimator",2000.042012,"None","2001.673079",167,NA,"overestimator",3,"2","3",NA,NA,32,"sub-001",0,4,0,NA,0,NA,NA,NA,NA,16,16,376,16,23,"None","sub-001",52,32
"377",21,"underestimator",2004.095613,"2004.897429","None",139,175,"overestimator",3,"2","1","0",0.7352247,63,"sub-001",2,1,NA,0,0,1,1,NA,0,17,17,377,17,21,"0","sub-001",63,62
"378",24,"underestimator",2008.953446,"2009.886211","None",158,173,"overestimator",3,"2","4","0",0.8663977,60,"sub-001",2,5,1,NA,0,1,NA,1,NA,18,18,378,18,24,"0","sub-001",60,42
"379",13,"underestimator",2014.079135,"2015.149271","None",174,175,"overestimator",3,"1","3","0",1.0044813,52,"sub-001",1,2,1,NA,0,1,NA,1,NA,19,19,379,19,13,"0","sub-001",52,54
"380",12,"underestimator",2018.918992,"2019.918433","None",125,125,"overestimator",3,"1","2","1",0.9330386,62,"sub-001",2,1,NA,0,0,0,1,NA,0,20,20,380,20,12,"1","sub-001",50,62
"381",14,"underestimator",2023.402904,"2024.650306","None",141,149,"overestimator",3,"1","4","0",1.1818295,82,"sub-001",1,3,1,NA,0,1,NA,1,NA,21,21,381,21,14,"0","sub-001",82,46
"382",21,"underestimator",2028.271516,"2029.461029","None",132,156,"overestimator",3,"2","1","1",1.1247552,76,"sub-001",1,1,NA,1,0,0,1,NA,1,22,22,382,22,21,"1","sub-001",60,76
"383",23,"underestimator",2033.370107,"2034.199836","None",160,130,"overestimator",3,"2","3","0",0.7648092,53,"sub-001",2,4,1,NA,0,1,NA,1,NA,23,23,383,23,23,"0","sub-001",53,46
"384",34,"underestimator",2037.701893,"2039.063351","None",135,176,"overestimator",3,"3","4","1",1.2921057,47,"sub-001",4,6,NA,0,0,0,-1,NA,0,24,24,384,24,34,"1","sub-001",33,47
"385",34,"underestimator",2042.851779,"2044.080053","None",126,147,"overestimator",3,"3","4","1",1.1621931,40,"sub-001",4,6,NA,0,0,0,-1,NA,0,25,25,385,25,34,"1","sub-001",44,40
"386",31,"underestimator",2047.900074,"2048.948495","None",161,159,"overestimator",3,"3","1","1",0.9815241,54,"sub-001",1,2,1,NA,0,0,NA,1,NA,26,26,386,26,31,"1","sub-001",56,54
"387",21,"underestimator",2052.724829,"2053.861339","None",140,179,"overestimator",3,"2","1","1",1.0700312,51,"sub-001",1,1,NA,1,0,0,1,NA,1,27,27,387,27,21,"1","sub-001",52,51
"388",41,"underestimator",2058.033395,"2058.863264","None",169,170,"overestimator",3,"4","1","1",0.7615265,80,"sub-001",1,3,1,NA,0,0,NA,1,NA,28,28,388,28,41,"1","sub-001",50,80
"389",23,"underestimator",2062.833228,"2063.572877","None",154,143,"overestimator",3,"2","3","0",0.6729598,58,"sub-001",2,4,1,NA,0,1,NA,1,NA,29,29,389,29,23,"0","sub-001",58,35
"390",34,"underestimator",2067.301443,"2068.424843","None",150,156,"overestimator",3,"3","4","1",1.0577078,51,"sub-001",4,6,NA,0,0,0,-1,NA,0,30,30,390,30,34,"1","sub-001",43,51
"391",31,"underestimator",2072.201096,"2073.068624","None",145,154,"overestimator",3,"3","1","1",0.7984908,46,"sub-001",1,2,1,NA,0,0,NA,1,NA,31,31,391,31,31,"1","sub-001",25,46
"392",12,"underestimator",2076.676913,"2077.732347","None",126,165,"overestimator",3,"1","2","0",0.9904939,68,"sub-001",1,1,NA,1,0,1,1,NA,1,32,32,392,32,12,"0","sub-001",68,57
"393",24,"underestimator",2081.37678,"2082.282338","None",120,137,"overestimator",3,"2","4","0",0.8404793,72,"sub-001",2,5,1,NA,0,1,NA,1,NA,33,33,393,33,24,"0","sub-001",72,47
"394",12,"underestimator",2085.884504,"2087.078009","None",143,169,"overestimator",3,"1","2","1",1.127242,61,"sub-001",2,1,NA,0,0,0,1,NA,0,34,34,394,34,12,"1","sub-001",67,61
"395",32,"underestimator",2090.908266,"2091.570003","None",138,146,"overestimator",3,"3","2","1",0.5951595,66,"sub-001",2,4,1,NA,0,0,NA,1,NA,35,35,395,35,32,"1","sub-001",48,66
"396",13,"underestimator",2095.183453,"2096.151835","None",135,162,"overestimator",3,"1","3","0",0.9031119,78,"sub-001",1,2,1,NA,0,1,NA,1,NA,36,36,396,36,13,"0","sub-001",78,31
"397",12,"underestimator",2099.817435,"2100.783962","None",126,170,"overestimator",3,"1","2","0",0.9021967,71,"sub-001",1,1,NA,1,0,1,1,NA,1,37,37,397,37,12,"0","sub-001",71,54
"398",41,"underestimator",2104.508152,"2105.116906","None",124,150,"overestimator",3,"4","1","1",0.5432851,76,"sub-001",1,3,1,NA,0,0,NA,1,NA,38,38,398,38,41,"1","sub-001",38,76
"399",31,"underestimator",2108.723833,"2109.342689","None",130,162,"overestimator",3,"3","1","1",0.5531088,53,"sub-001",1,2,1,NA,0,0,NA,1,NA,39,39,399,39,31,"1","sub-001",34,53
"400",41,"underestimator",2113.349042,"2113.91238","None",166,129,"overestimator",3,"4","1","1",0.4931654,76,"sub-001",1,3,1,NA,0,0,NA,1,NA,40,40,400,40,41,"1","sub-001",49,76
"401",34,"underestimator",2117.407167,"2118.609386","None",138,177,"overestimator",3,"3","4","1",1.1367591,46,"sub-001",4,6,NA,0,0,0,-1,NA,0,41,41,401,41,34,"1","sub-001",61,46
"402",24,"underestimator",2122.381913,"2123.262833","None",125,161,"overestimator",3,"2","4","0",0.815575,55,"sub-001",2,5,1,NA,0,1,NA,1,NA,42,42,402,42,24,"0","sub-001",55,45
"403",13,"underestimator",2127.239693,"2128.350157","None",163,176,"overestimator",3,"1","3","0",1.0433121,74,"sub-001",1,2,1,NA,0,1,NA,1,NA,43,43,403,43,13,"0","sub-001",74,35
"404",12,"underestimator",2132.489347,"None","2134.154724",167,NA,"overestimator",3,"1","2",NA,NA,50,"sub-001",0,1,NA,NA,0,NA,1,NA,NA,44,44,404,44,12,"None","sub-001",88,50
"405",14,"underestimator",2136.887534,"2137.757202","None",174,124,"overestimator",3,"1","4","0",0.8004894,78,"sub-001",1,3,1,NA,0,1,NA,1,NA,45,45,405,45,14,"0","sub-001",78,36
"406",43,"underestimator",2159.41562,"2160.253481","None",155,156,"overestimator",3,"4","3","0",0.7688468,47,"sub-001",4,6,NA,0,0,1,-1,NA,0,46,46,406,46,43,"0","sub-001",47,15
"407",42,"underestimator",2164.222613,"2164.973311","None",166,168,"overestimator",3,"4","2","1",0.6861838,58,"sub-001",2,5,1,NA,0,0,NA,1,NA,47,47,407,47,42,"1","sub-001",41,58
"408",34,"underestimator",2168.688367,"2169.569393","None",122,166,"overestimator",3,"3","4","1",0.815069,41,"sub-001",4,6,NA,0,0,0,-1,NA,0,48,48,408,48,34,"1","sub-001",47,41
"409",21,"underestimator",2173.280459,"2174.10812","None",126,122,"overestimator",3,"2","1","0",0.7546441,51,"sub-001",2,1,NA,0,0,1,1,NA,0,49,49,409,49,21,"0","sub-001",51,58
"410",42,"underestimator",2177.420391,"2178.317042","None",124,173,"overestimator",3,"4","2","1",0.8248818,57,"sub-001",2,5,1,NA,0,0,NA,1,NA,50,50,410,50,42,"1","sub-001",40,57
"411",31,"underestimator",2182.245189,"2182.997908","None",145,161,"overestimator",3,"3","1","1",0.6868023,38,"sub-001",1,2,1,NA,0,0,NA,1,NA,51,51,411,51,31,"1","sub-001",10,38
"412",21,"underestimator",2187.054996,"2187.588969","None",174,151,"overestimator",3,"2","1","1",0.4685344,63,"sub-001",1,1,NA,1,0,0,1,NA,1,52,52,412,52,21,"1","sub-001",64,63
"413",13,"underestimator",2191.596037,"2192.156621","None",178,142,"overestimator",3,"1","3","0",0.4945282,62,"sub-001",1,2,1,NA,0,1,NA,1,NA,53,53,413,53,13,"0","sub-001",62,48
"414",32,"underestimator",2195.679019,"2196.927398","None",129,163,"overestimator",3,"3","2","1",1.1824932,56,"sub-001",2,4,1,NA,0,0,NA,1,NA,54,54,414,54,32,"1","sub-001",41,56
"415",24,"underestimator",2200.919438,"2201.896298","None",161,123,"overestimator",3,"2","4","0",0.9085871,62,"sub-001",2,5,1,NA,0,1,NA,1,NA,55,55,415,55,24,"0","sub-001",62,40
"416",23,"underestimator",2205.471641,"2206.338238","None",152,151,"overestimator",3,"2","3","0",0.7985016,62,"sub-001",2,4,1,NA,0,1,NA,1,NA,56,56,416,56,23,"0","sub-001",62,53
"417",42,"underestimator",2209.969289,"2210.777966","None",132,124,"overestimator",3,"4","2","1",0.7418568,60,"sub-001",2,5,1,NA,0,0,NA,1,NA,57,57,417,57,42,"1","sub-001",48,60
"418",14,"underestimator",2214.388249,"2215.127886","None",156,146,"overestimator",3,"1","4","0",0.6736581,64,"sub-001",1,3,1,NA,0,1,NA,1,NA,58,58,418,58,14,"0","sub-001",64,47
"419",34,"underestimator",2218.766382,"2219.973441","None",138,127,"overestimator",3,"3","4","1",1.1410063,38,"sub-001",4,6,NA,0,0,0,-1,NA,0,59,59,419,59,34,"1","sub-001",53,38
"420",14,"underestimator",2223.602782,"2224.320702","None",154,152,"overestimator",3,"1","4","0",0.6504291,76,"sub-001",1,3,1,NA,0,1,NA,1,NA,60,60,420,60,14,"0","sub-001",76,44
"421",41,"underestimator",2228.3116,"2229.030115","None",173,145,"overestimator",3,"4","1","1",0.6530605,59,"sub-001",1,3,1,NA,0,0,NA,1,NA,61,61,421,61,41,"1","sub-001",38,59
"422",24,"underestimator",2232.836267,"2233.725991","None",158,165,"overestimator",3,"2","4","0",0.8247909,70,"sub-001",2,5,1,NA,0,1,NA,1,NA,62,62,422,62,24,"0","sub-001",70,28
"423",32,"underestimator",2237.393358,"2238.252313","None",123,142,"overestimator",3,"3","2","1",0.791907,65,"sub-001",2,4,1,NA,0,0,NA,1,NA,63,63,423,63,32,"1","sub-001",20,65
"424",24,"underestimator",2241.769195,"2242.376965","None",127,147,"overestimator",3,"2","4","0",0.5417794,60,"sub-001",2,5,1,NA,0,1,NA,1,NA,64,64,424,64,24,"0","sub-001",60,39
"425",24,"underestimator",2245.994371,"2246.646945","None",133,170,"overestimator",3,"2","4","0",0.5869153,60,"sub-001",2,5,1,NA,0,1,NA,1,NA,65,65,425,65,24,"0","sub-001",60,47
"426",23,"underestimator",2250.803018,"2251.579721","None",177,164,"overestimator",3,"2","3","0",0.7112247,57,"sub-001",2,4,1,NA,0,1,NA,1,NA,66,66,426,66,23,"0","sub-001",57,51
"427",31,"underestimator",2255.617745,"2256.312487","None",168,122,"overestimator",3,"3","1","1",0.6253365,70,"sub-001",1,2,1,NA,0,0,NA,1,NA,67,67,427,67,31,"1","sub-001",25,70
"428",42,"underestimator",2260.068685,"2260.892238","None",176,177,"overestimator",3,"4","2","1",0.7569105,60,"sub-001",2,5,1,NA,0,0,NA,1,NA,68,68,428,68,42,"1","sub-001",51,60
"429",34,"underestimator",2264.818447,"2265.936953","None",141,137,"overestimator",3,"3","4","1",1.0525243,42,"sub-001",4,6,NA,0,0,0,-1,NA,0,69,69,429,69,34,"1","sub-001",27,42
"430",24,"underestimator",2269.499371,"2270.881368","None",138,160,"overestimator",3,"2","4","0",1.3115365,61,"sub-001",2,5,1,NA,0,1,NA,1,NA,70,70,430,70,24,"0","sub-001",61,52
"431",41,"underestimator",2274.71016,"2275.39276","None",147,120,"overestimator",3,"4","1","1",0.6165527,49,"sub-001",1,3,1,NA,0,0,NA,1,NA,71,71,431,71,41,"1","sub-001",35,49
"432",13,"underestimator",2278.79397,"2279.372215","None",134,176,"overestimator",3,"1","3","0",0.5117486,52,"sub-001",1,2,1,NA,0,1,NA,1,NA,72,72,432,72,13,"0","sub-001",52,30
"433",31,"underestimator",2283.388248,"2283.860036","None",154,143,"overestimator",3,"3","1","1",0.4045965,62,"sub-001",1,2,1,NA,0,0,NA,1,NA,73,73,433,73,31,"1","sub-001",43,62
"434",32,"underestimator",2287.684046,"2288.62055","None",162,174,"overestimator",3,"3","2","1",0.8709489,59,"sub-001",2,4,1,NA,0,0,NA,1,NA,74,74,434,74,32,"1","sub-001",26,59
"435",12,"underestimator",2292.666837,"2293.708223","None",159,172,"overestimator",3,"1","2","1",0.9745107,61,"sub-001",2,1,NA,0,0,0,1,NA,0,75,75,435,75,12,"1","sub-001",73,61
"436",43,"underestimator",2297.667647,"2299.126885","None",151,156,"overestimator",3,"4","3","0",1.3922323,40,"sub-001",4,6,NA,0,0,1,-1,NA,0,76,76,436,76,43,"0","sub-001",40,34
"437",14,"underestimator",2303.033904,"2303.678673","None",159,121,"overestimator",3,"1","4","0",0.5780491,82,"sub-001",1,3,1,NA,0,1,NA,1,NA,77,77,437,77,14,"0","sub-001",82,46
"438",12,"underestimator",2307.201128,"2307.807704","None",149,139,"overestimator",3,"1","2","0",0.5406897,55,"sub-001",1,1,NA,1,0,1,1,NA,1,78,78,438,78,12,"0","sub-001",55,57
"439",23,"underestimator",2311.384964,"2312.333716","None",138,146,"overestimator",3,"2","3","0",0.8826036,61,"sub-001",2,4,1,NA,0,1,NA,1,NA,79,79,439,79,23,"0","sub-001",61,15
"440",32,"underestimator",2315.934769,"2317.040298","None",133,162,"overestimator",3,"3","2","1",1.0400577,68,"sub-001",2,4,1,NA,0,0,NA,1,NA,80,80,440,80,32,"1","sub-001",38,68
"441",14,"underestimator",2320.748466,"2321.582317","None",128,127,"overestimator",3,"1","4","0",0.7668074,77,"sub-001",1,3,1,NA,0,1,NA,1,NA,81,81,441,81,14,"0","sub-001",77,46
"442",42,"underestimator",2325.148613,"2326.398019","None",148,127,"overestimator",3,"4","2","1",1.1839199,61,"sub-001",2,5,1,NA,0,0,NA,1,NA,82,82,442,82,42,"1","sub-001",37,61
"443",34,"underestimator",2329.933193,"2331.288237","None",146,156,"overestimator",3,"3","4","1",1.2888104,40,"sub-001",4,6,NA,0,0,0,-1,NA,0,83,83,443,83,34,"1","sub-001",37,40
"444",31,"underestimator",2335.316847,"2336.074541","None",173,123,"overestimator",3,"3","1","1",0.6909325,71,"sub-001",1,2,1,NA,0,0,NA,1,NA,84,84,444,84,31,"1","sub-001",36,71
"445",32,"underestimator",2339.742524,"2340.739114","None",166,165,"overestimator",3,"3","2","1",0.9269081,56,"sub-001",2,4,1,NA,0,0,NA,1,NA,85,85,445,85,32,"1","sub-001",11,56
"446",13,"underestimator",2344.415497,"2345.238075","None",122,139,"overestimator",3,"1","3","0",0.7577874,59,"sub-001",1,2,1,NA,0,1,NA,1,NA,86,86,446,86,13,"0","sub-001",59,73
"447",41,"underestimator",2348.778772,"2349.396952","None",133,165,"overestimator",3,"4","1","1",0.552824,70,"sub-001",1,3,1,NA,0,0,NA,1,NA,87,87,447,87,41,"1","sub-001",45,70
"448",24,"underestimator",2353.331379,"2354.221873","None",156,177,"overestimator",3,"2","4","0",0.8247374,51,"sub-001",2,5,1,NA,0,1,NA,1,NA,88,88,448,88,24,"0","sub-001",51,44
"449",31,"underestimator",2358.090233,"2358.658823","None",134,128,"overestimator",3,"3","1","1",0.5030708,74,"sub-001",1,2,1,NA,0,0,NA,1,NA,89,89,449,89,31,"1","sub-001",44,74
"450",23,"underestimator",2362.383109,"2363.188712","None",168,139,"overestimator",3,"2","3","0",0.7397475,56,"sub-001",2,4,1,NA,0,1,NA,1,NA,90,90,450,90,23,"0","sub-001",56,35
"451",12,"underestimator",2384.731541,"2385.664294","None",126,130,"overestimator",3,"1","2","0",0.8679854,71,"sub-001",1,1,NA,1,0,1,1,NA,1,91,91,451,91,12,"0","sub-001",71,57
"452",32,"underestimator",2389.097607,"2390.410677","None",130,144,"overestimator",3,"3","2","1",1.2467272,62,"sub-001",2,4,1,NA,0,0,NA,1,NA,92,92,452,92,32,"1","sub-001",11,62
"453",21,"underestimator",2394.289224,"2395.495444","None",168,136,"overestimator",3,"2","1","1",1.1402014,71,"sub-001",1,1,NA,1,0,0,1,NA,1,93,93,453,93,21,"1","sub-001",61,71
"454",42,"underestimator",2399.263734,"2400.265165","None",164,126,"overestimator",3,"4","2","1",0.93599,59,"sub-001",2,5,1,NA,0,0,NA,1,NA,94,94,454,94,42,"1","sub-001",43,59
"455",23,"underestimator",2403.920173,"2404.544152","None",158,127,"overestimator",3,"2","3","0",0.5567534,48,"sub-001",2,4,1,NA,0,1,NA,1,NA,95,95,455,95,23,"0","sub-001",48,34
"456",14,"underestimator",2408.329452,"2409.360886","None",172,144,"overestimator",3,"1","4","0",0.965589,53,"sub-001",1,3,1,NA,0,1,NA,1,NA,96,96,456,96,14,"0","sub-001",53,44
"457",24,"underestimator",2413.114087,"2414.090537","None",153,159,"overestimator",3,"2","4","0",0.9105762,53,"sub-001",2,5,1,NA,0,1,NA,1,NA,97,97,457,97,24,"0","sub-001",53,33
"458",32,"underestimator",2417.920629,"2418.778321","None",149,164,"overestimator",3,"3","2","1",0.7915707,61,"sub-001",2,4,1,NA,0,0,NA,1,NA,98,98,458,98,32,"1","sub-001",21,61
"459",42,"underestimator",2422.420883,"2422.928595","None",120,169,"overestimator",3,"4","2","1",0.4416169,54,"sub-001",2,5,1,NA,0,0,NA,1,NA,99,99,459,99,42,"1","sub-001",47,54
"460",41,"underestimator",2427.078611,"2427.973214","None",176,166,"overestimator",3,"4","1","1",0.8282445,41,"sub-001",1,3,1,NA,0,0,NA,1,NA,100,100,460,100,41,"1","sub-001",39,41
"461",43,"underestimator",2431.636743,"2432.956081","None",122,177,"overestimator",3,"4","3","0",1.2528623,50,"sub-001",4,6,NA,0,0,1,-1,NA,0,101,101,461,101,43,"0","sub-001",50,12
"462",14,"underestimator",2437.027858,"2437.89587","None",158,164,"overestimator",3,"1","4","0",0.7998016,63,"sub-001",1,3,1,NA,0,1,NA,1,NA,102,102,462,102,14,"0","sub-001",63,45
"463",34,"underestimator",2441.978812,"2443.466962","None",174,179,"overestimator",3,"3","4","1",1.4183552,49,"sub-001",4,6,NA,0,0,0,-1,NA,0,103,103,463,103,34,"1","sub-001",40,49
"464",41,"underestimator",2447.620579,"2448.311082","None",168,156,"overestimator",3,"4","1","1",0.6252255,73,"sub-001",1,3,1,NA,0,0,NA,1,NA,104,104,464,104,41,"1","sub-001",45,73
"465",43,"underestimator",2452.179217,"2453.34763","None",154,123,"overestimator",3,"4","3","0",1.1020457,47,"sub-001",4,6,NA,0,0,1,-1,NA,0,105,105,465,105,43,"0","sub-001",47,51
"466",24,"underestimator",2456.902788,"2458.14626","None",143,175,"overestimator",3,"2","4","0",1.1771263,63,"sub-001",2,5,1,NA,0,1,NA,1,NA,106,106,466,106,24,"0","sub-001",63,44
"467",42,"underestimator",2462.310536,"2463.424668","None",173,145,"overestimator",3,"4","2","1",1.0487723,58,"sub-001",2,5,1,NA,0,0,NA,1,NA,107,107,467,107,42,"1","sub-001",38,58
"468",34,"underestimator",2467.403309,"2468.761567","None",179,165,"overestimator",3,"3","4","1",1.2940437,43,"sub-001",4,6,NA,0,0,0,-1,NA,0,108,108,468,108,34,"1","sub-001",43,43
"469",12,"underestimator",2472.468935,"2473.41978","None",129,131,"overestimator",3,"1","2","0",0.8849222,27,"sub-001",1,1,NA,1,0,1,1,NA,1,109,109,469,109,12,"0","sub-001",27,60
"470",43,"underestimator",2476.935592,"2478.302427","None",138,139,"overestimator",3,"4","3","0",1.2994712,43,"sub-001",4,6,NA,0,0,1,-1,NA,0,110,110,470,110,43,"0","sub-001",43,39
"471",43,"underestimator",2481.909099,"2483.058787","None",142,143,"overestimator",3,"4","3","0",1.0829349,49,"sub-001",4,6,NA,0,0,1,-1,NA,0,111,111,471,111,43,"0","sub-001",49,28
"472",34,"underestimator",2486.933687,"2487.908462","None",171,167,"overestimator",3,"3","4","1",0.9072615,41,"sub-001",4,6,NA,0,0,0,-1,NA,0,112,112,472,112,34,"1","sub-001",64,41
"473",31,"underestimator",2491.718894,"2493.047735","None",136,122,"overestimator",3,"3","1","1",1.2623638,50,"sub-001",1,2,1,NA,0,0,NA,1,NA,113,113,473,113,31,"1","sub-001",36,50
"474",43,"underestimator",2496.418657,"2497.612948","None",130,178,"overestimator",3,"4","3","0",1.1302323,49,"sub-001",4,6,NA,0,0,1,-1,NA,0,114,114,474,114,43,"0","sub-001",49,41
"475",14,"underestimator",2501.72613,"2502.398852","None",163,134,"overestimator",3,"1","4","0",0.6083532,45,"sub-001",1,3,1,NA,0,1,NA,1,NA,115,115,475,115,14,"0","sub-001",45,35
"476",23,"underestimator",2505.952044,"2507.133644","None",139,132,"overestimator",3,"2","3","0",1.1158201,65,"sub-001",2,4,1,NA,0,1,NA,1,NA,116,116,476,116,23,"0","sub-001",65,36
"477",21,"underestimator",2510.749659,"2511.591444","None",148,166,"overestimator",3,"2","1","1",0.775208,51,"sub-001",1,1,NA,1,0,0,1,NA,1,117,117,477,117,21,"1","sub-001",58,51
"478",23,"underestimator",2515.266753,"2515.947063","None",123,167,"overestimator",3,"2","3","0",0.6143656,63,"sub-001",2,4,1,NA,0,1,NA,1,NA,118,118,478,118,23,"0","sub-001",63,47
"479",42,"underestimator",2519.841483,"2520.507462","None",148,120,"overestimator",3,"4","2","1",0.5997577,60,"sub-001",2,5,1,NA,0,0,NA,1,NA,119,119,479,119,42,"1","sub-001",42,60
"480",34,"underestimator",2523.856536,"2525.101263","None",130,141,"overestimator",3,"3","4","1",1.1783952,50,"sub-001",4,6,NA,0,0,0,-1,NA,0,120,120,480,120,34,"1","sub-001",32,50
"481",43,"underestimator",2529.041105,"2530.297732","None",179,132,"overestimator",3,"4","3","0",1.1913736,42,"sub-001",4,6,NA,0,0,1,-1,NA,0,121,121,481,121,43,"0","sub-001",42,73
"482",34,"underestimator",2533.708186,"2534.949644","None",126,152,"overestimator",3,"3","4","1",1.174972,49,"sub-001",4,6,NA,0,0,0,-1,NA,0,122,122,482,122,34,"1","sub-001",13,49
"483",12,"underestimator",2538.934378,"2540.175222","None",173,122,"overestimator",3,"1","2","0",1.1725,92,"sub-001",1,1,NA,1,0,1,1,NA,1,123,123,483,123,12,"0","sub-001",92,60
"484",41,"underestimator",2543.941094,"2544.583932","None",177,176,"overestimator",3,"4","1","1",0.5755908,94,"sub-001",1,3,1,NA,0,0,NA,1,NA,124,124,484,124,41,"1","sub-001",45,94
"485",34,"underestimator",2548.457263,"2549.333817","None",135,158,"overestimator",3,"3","4","1",0.8117805,43,"sub-001",4,6,NA,0,0,0,-1,NA,0,125,125,485,125,34,"1","sub-001",55,43
"486",14,"underestimator",2553.005995,"2553.5397","None",131,157,"overestimator",3,"1","4","0",0.4667075,53,"sub-001",1,3,1,NA,0,1,NA,1,NA,126,126,486,126,14,"0","sub-001",53,52
"487",24,"underestimator",2557.24797,"2558.215635","None",134,139,"overestimator",3,"2","4","0",0.9019414,60,"sub-001",2,5,1,NA,0,1,NA,1,NA,127,127,487,127,24,"0","sub-001",60,41
"488",21,"underestimator",2561.683908,"2562.339613","None",124,146,"overestimator",3,"2","1","1",0.5896888,69,"sub-001",1,1,NA,1,0,0,1,NA,1,128,128,488,128,21,"1","sub-001",63,69
"489",14,"underestimator",2566.214681,"2566.876451","None",166,157,"overestimator",3,"1","4","0",0.5936731,50,"sub-001",1,3,1,NA,0,1,NA,1,NA,129,129,489,129,14,"0","sub-001",50,52
"490",23,"underestimator",2570.490841,"2571.563185","None",123,164,"overestimator",3,"2","3","0",1.0077579,53,"sub-001",2,4,1,NA,0,1,NA,1,NA,130,130,490,130,23,"0","sub-001",53,52
"491",42,"underestimator",2575.367463,"2576.188092","None",141,121,"overestimator",3,"4","2","1",0.7556231,60,"sub-001",2,5,1,NA,0,0,NA,1,NA,131,131,491,131,42,"1","sub-001",34,60
"492",32,"underestimator",2579.67353,"2580.712903","None",144,150,"overestimator",3,"3","2","1",0.9745232,61,"sub-001",2,4,1,NA,0,0,NA,1,NA,132,132,492,132,32,"1","sub-001",38,61
"493",32,"underestimator",2584.415342,"2585.373828","None",137,160,"overestimator",3,"3","2","1",0.8943221,62,"sub-001",2,4,1,NA,0,0,NA,1,NA,133,133,493,133,32,"1","sub-001",27,62
"494",43,"underestimator",2589.240146,"2590.153203","None",152,163,"overestimator",3,"4","3","0",0.8467536,39,"sub-001",4,6,NA,0,0,1,-1,NA,0,134,134,494,134,43,"0","sub-001",39,73
"495",42,"underestimator",2594.280677,"2594.932436","None",178,144,"overestimator",3,"4","2","1",0.5861703,62,"sub-001",2,5,1,NA,0,0,NA,1,NA,135,135,495,135,42,"1","sub-001",39,62
"496",32,"underestimator",2616.596108,"2617.624707","None",136,144,"overestimator",3,"3","2","1",0.9615655,61,"sub-001",2,4,1,NA,0,0,NA,1,NA,136,136,496,136,32,"1","sub-001",36,61
"497",13,"underestimator",2621.131163,"2622.085339","None",126,162,"overestimator",3,"1","3","0",0.8857281,52,"sub-001",1,2,1,NA,0,1,NA,1,NA,137,137,497,137,13,"0","sub-001",52,10
"498",23,"underestimator",2625.856618,"2626.711454","None",136,124,"overestimator",3,"2","3","0",0.7887729,62,"sub-001",2,4,1,NA,0,1,NA,1,NA,138,138,498,138,23,"0","sub-001",62,42
"499",42,"underestimator",2630.246166,"2630.777499","None",148,146,"overestimator",3,"4","2","1",0.4664437,68,"sub-001",2,5,1,NA,0,0,NA,1,NA,139,139,499,139,42,"1","sub-001",43,68
"500",43,"underestimator",2634.478768,"2635.318036","None",146,159,"overestimator",3,"4","3","0",0.7736423,38,"sub-001",4,6,NA,0,0,1,-1,NA,0,140,140,500,140,43,"0","sub-001",38,33
"501",43,"underestimator",2639.395441,"2640.654081","None",178,174,"overestimator",3,"4","3","0",1.1866334,37,"sub-001",4,6,NA,0,0,1,-1,NA,0,141,141,501,141,43,"0","sub-001",37,43
"502",31,"underestimator",2644.761833,"2645.418658","None",166,158,"overestimator",3,"3","1","1",0.5914363,87,"sub-001",1,2,1,NA,0,0,NA,1,NA,142,142,502,142,31,"1","sub-001",36,87
"503",34,"underestimator",2649.119944,"2649.951545","None",134,125,"overestimator",3,"3","4","1",0.7651249,46,"sub-001",4,6,NA,0,0,0,-1,NA,0,143,143,503,143,34,"1","sub-001",39,46
"504",14,"underestimator",2653.402862,"2654.110475","None",138,127,"overestimator",3,"1","4","0",0.6420035,63,"sub-001",1,3,1,NA,0,1,NA,1,NA,144,144,504,144,14,"0","sub-001",63,44
"505",21,"underestimator",2657.800917,"2658.302521","None",164,155,"overestimator",3,"2","1","1",0.4337942,64,"sub-001",1,1,NA,1,0,0,1,NA,1,145,145,505,145,21,"1","sub-001",58,64
"506",41,"underestimator",2661.877862,"2662.435574","None",123,166,"overestimator",3,"4","1","1",0.4915946,51,"sub-001",1,3,1,NA,0,0,NA,1,NA,146,146,506,146,41,"1","sub-001",42,51
"507",12,"underestimator",2666.228021,"2667.248475","None",137,178,"overestimator",3,"1","2","0",0.9530764,32,"sub-001",1,1,NA,1,0,1,1,NA,1,147,147,507,147,12,"0","sub-001",32,56
"508",32,"underestimator",2671.311749,"2672.230167","None",157,164,"overestimator",3,"3","2","1",0.8532449,58,"sub-001",2,4,1,NA,0,0,NA,1,NA,148,148,508,148,32,"1","sub-001",34,58
"509",23,"underestimator",2675.911739,"2676.819314","None",125,126,"overestimator",3,"2","3","0",0.8410773,59,"sub-001",2,4,1,NA,0,1,NA,1,NA,149,149,509,149,23,"0","sub-001",59,36
"510",31,"underestimator",2680.235675,"2681.005116","None",131,157,"overestimator",3,"3","1","1",0.7032202,62,"sub-001",1,2,1,NA,0,0,NA,1,NA,150,150,510,150,31,"1","sub-001",60,62
"511",12,"underestimator",2684.961178,"2685.729913","None",164,137,"overestimator",3,"1","2","0",0.7024818,57,"sub-001",1,1,NA,1,0,1,1,NA,1,151,151,511,151,12,"0","sub-001",57,64
"512",24,"underestimator",2689.410231,"2690.759456","None",152,141,"overestimator",3,"2","4","0",1.2826004,60,"sub-001",2,5,1,NA,0,1,NA,1,NA,152,152,512,152,24,"0","sub-001",60,45
"513",23,"underestimator",2694.58372,"2695.316404","None",166,165,"overestimator",3,"2","3","0",0.6664088,65,"sub-001",2,4,1,NA,0,1,NA,1,NA,153,153,513,153,23,"0","sub-001",65,22
"514",41,"underestimator",2699.252742,"2700.044411","None",156,126,"overestimator",3,"4","1","1",0.7213824,90,"sub-001",1,3,1,NA,0,0,NA,1,NA,154,154,514,154,41,"1","sub-001",44,90
"515",32,"underestimator",2703.574591,"2704.374355","None",145,134,"overestimator",3,"3","2","1",0.7328627,56,"sub-001",2,4,1,NA,0,0,NA,1,NA,155,155,515,155,32,"1","sub-001",31,56
"516",13,"underestimator",2707.79134,"2708.58711","None",121,136,"overestimator",3,"1","3","0",0.7268524,58,"sub-001",1,2,1,NA,0,1,NA,1,NA,156,156,516,156,13,"0","sub-001",58,35
"517",31,"underestimator",2712.38547,"2713.09495","None",168,162,"overestimator",3,"3","1","1",0.6433371,73,"sub-001",1,2,1,NA,0,0,NA,1,NA,157,157,517,157,31,"1","sub-001",54,73
"518",43,"underestimator",2716.726455,"2717.777042","None",121,171,"overestimator",3,"4","3","0",0.9845182,36,"sub-001",4,6,NA,0,0,1,-1,NA,0,158,158,518,158,43,"0","sub-001",36,61
"519",32,"underestimator",2721.618163,"2722.885512","None",137,150,"overestimator",3,"3","2","1",1.2006353,58,"sub-001",2,4,1,NA,0,0,NA,1,NA,159,159,519,159,32,"1","sub-001",52,58
"520",21,"underestimator",2726.890384,"2727.727197","None",178,167,"overestimator",3,"2","1","1",0.7690143,43,"sub-001",1,1,NA,1,0,0,1,NA,1,160,160,520,160,21,"1","sub-001",63,43
"521",43,"underestimator",2731.650621,"2732.654035","None",152,142,"overestimator",3,"4","3","0",0.9335749,39,"sub-001",4,6,NA,0,0,1,-1,NA,0,161,161,521,161,43,"0","sub-001",39,52
"522",31,"underestimator",2736.442247,"2737.167899","None",160,165,"overestimator",3,"3","1","1",0.6601563,62,"sub-001",1,2,1,NA,0,0,NA,1,NA,162,162,522,162,31,"1","sub-001",31,62
"523",24,"underestimator",2740.875414,"2741.782802","None",124,159,"overestimator",3,"2","4","0",0.8414288,62,"sub-001",2,5,1,NA,0,1,NA,1,NA,163,163,523,163,24,"0","sub-001",62,33
"524",13,"underestimator",2745.642023,"2746.555316","None",152,137,"overestimator",3,"1","3","0",0.8466064,57,"sub-001",1,2,1,NA,0,1,NA,1,NA,164,164,524,164,13,"0","sub-001",57,59
"525",13,"underestimator",2750.150872,"2750.871634","None",142,176,"overestimator",3,"1","3","0",0.6531857,65,"sub-001",1,2,1,NA,0,1,NA,1,NA,165,165,525,165,13,"0","sub-001",65,42
"526",13,"underestimator",2755.032416,"2755.640296","None",171,129,"overestimator",3,"1","3","0",0.541893,59,"sub-001",1,2,1,NA,0,1,NA,1,NA,166,166,526,166,13,"0","sub-001",59,54
"527",13,"underestimator",2759.02372,"2759.663724","None",125,131,"overestimator",3,"1","3","0",0.5740189,63,"sub-001",1,2,1,NA,0,1,NA,1,NA,167,167,527,167,13,"0","sub-001",63,31
"528",41,"underestimator",2763.457671,"2764.171721","None",172,163,"overestimator",3,"4","1","1",0.6488765,47,"sub-001",1,3,1,NA,0,0,NA,1,NA,168,168,528,168,41,"1","sub-001",44,47
"529",42,"underestimator",2767.95853,"2768.628873","None",138,147,"overestimator",3,"4","2","1",0.6025262,51,"sub-001",2,5,1,NA,0,0,NA,1,NA,169,169,529,169,42,"1","sub-001",43,51
"530",14,"underestimator",2772.500426,"2773.185044","None",166,177,"overestimator",3,"1","4","0",0.6188898,38,"sub-001",1,3,1,NA,0,1,NA,1,NA,170,170,530,170,14,"0","sub-001",38,41
"531",21,"underestimator",2777.07454,"2777.646418","None",138,122,"overestimator",3,"2","1","1",0.5068892,68,"sub-001",1,1,NA,1,0,0,1,NA,1,171,171,531,171,21,"1","sub-001",53,68
"532",43,"underestimator",2781.241595,"2782.207078","None",155,125,"overestimator",3,"4","3","0",0.8999427,39,"sub-001",4,6,NA,0,0,1,-1,NA,0,172,172,532,172,43,"0","sub-001",39,24
"533",31,"underestimator",2786.007007,"2786.938728","None",174,157,"overestimator",3,"3","1","1",0.8657565,60,"sub-001",1,2,1,NA,0,0,NA,1,NA,173,173,533,173,31,"1","sub-001",48,60
"534",14,"underestimator",2791.03261,"2791.70135","None",179,141,"overestimator",3,"1","4","0",0.6026502,93,"sub-001",1,3,1,NA,0,1,NA,1,NA,174,174,534,174,14,"0","sub-001",93,51
"535",32,"underestimator",2795.199724,"2796.632216","None",127,175,"overestimator",3,"3","2","1",1.3663046,61,"sub-001",2,4,1,NA,0,0,NA,1,NA,175,175,535,175,32,"1","sub-001",43,61
"536",14,"underestimator",2800.673427,"2801.540066","None",155,164,"overestimator",3,"1","4","0",0.8011669,29,"sub-001",1,3,1,NA,0,1,NA,1,NA,176,176,536,176,14,"0","sub-001",29,37
"537",21,"underestimator",2805.642902,"2806.593981","None",176,129,"overestimator",3,"2","1","1",0.8826751,36,"sub-001",1,1,NA,1,0,0,1,NA,1,177,177,537,177,21,"1","sub-001",66,36
"538",23,"underestimator",2810.045831,"2810.66643","None",135,173,"overestimator",3,"2","3","0",0.5535262,62,"sub-001",2,4,1,NA,0,1,NA,1,NA,178,178,538,178,23,"0","sub-001",62,43
"539",13,"underestimator",2814.454869,"2815.489497","None",129,148,"overestimator",3,"1","3","0",0.9690376,59,"sub-001",1,2,1,NA,0,1,NA,1,NA,179,179,539,179,13,"0","sub-001",59,48
"540",21,"underestimator",2819.272691,"2819.978297","None",151,124,"overestimator",3,"2","1","0",0.6403862,53,"sub-001",2,1,NA,0,0,1,1,NA,0,180,180,540,180,21,"0","sub-001",53,45
"541",31,"underestimator",51.0543506,"51.9792132","None",130,156,"underestimator",1,"3","1","1",0.6920676,56,"sub-002",1,2,1,NA,0,0,NA,1,NA,1,1,1,1,31,"1","sub-002",62,56
"542",31,"underestimator",55.6322151,"56.2305111","None",126,148,"underestimator",1,"3","1","1",0.5281801,45,"sub-002",1,2,1,NA,0,0,NA,1,NA,2,2,2,2,31,"1","sub-002",66,45
"543",23,"underestimator",59.6989135,"60.5093671","None",131,130,"underestimator",1,"2","3","0",0.7397574,58,"sub-002",2,4,1,NA,0,1,NA,1,NA,3,3,3,3,23,"0","sub-002",58,18
"544",13,"underestimator",64.1505214,"64.9207527","None",170,165,"underestimator",1,"1","3","0",0.7008089,70,"sub-002",1,2,1,NA,0,1,NA,1,NA,4,4,4,4,13,"0","sub-002",70,33
"545",43,"underestimator",68.6663745,"69.9468078","None",147,171,"underestimator",1,"4","3","1",1.2115909,59,"sub-002",3,6,NA,1,0,0,-1,NA,1,5,5,5,5,43,"1","sub-002",39,59
"546",23,"underestimator",73.6823627,"74.3017699","None",140,159,"underestimator",1,"2","3","0",0.5490719,62,"sub-002",2,4,1,NA,0,1,NA,1,NA,6,6,6,6,23,"0","sub-002",62,57
"547",24,"underestimator",78.1494168,"78.7317155","None",161,155,"underestimator",1,"2","4","0",0.5136533,66,"sub-002",2,5,1,NA,0,1,NA,1,NA,7,7,7,7,24,"0","sub-002",66,40
"548",43,"underestimator",82.6651389,"83.5293997","None",174,178,"underestimator",1,"4","3","1",0.793602,29,"sub-002",3,6,NA,1,0,0,-1,NA,1,8,8,8,8,43,"1","sub-002",39,29
"549",42,"underestimator",87.2976541,"87.9884514","None",136,122,"underestimator",1,"4","2","1",0.6184992,53,"sub-002",2,5,1,NA,0,0,NA,1,NA,9,9,9,9,42,"1","sub-002",38,53
"550",23,"underestimator",91.4916536,"92.3776293","None",159,164,"underestimator",1,"2","3","0",0.8131543,59,"sub-002",2,4,1,NA,0,1,NA,1,NA,10,10,10,10,23,"0","sub-002",59,41
"551",34,"underestimator",96.2409485,"97.2817076","None",158,145,"underestimator",1,"3","4","1",0.974772,49,"sub-002",4,6,NA,0,0,0,-1,NA,0,11,11,11,11,34,"1","sub-002",30,49
"552",13,"underestimator",100.7150734,"101.3585512","None",130,148,"underestimator",1,"1","3","0",0.5737516,65,"sub-002",1,2,1,NA,0,1,NA,1,NA,12,12,12,12,13,"0","sub-002",65,55
"553",32,"underestimator",104.8237463,"105.332244","None",129,157,"underestimator",1,"3","2","1",0.4399222,54,"sub-002",2,4,1,NA,0,0,NA,1,NA,13,13,13,13,32,"1","sub-002",39,54
"554",21,"underestimator",108.9153082,"109.7850499","None",133,123,"underestimator",1,"2","1","1",0.8035408,55,"sub-002",1,1,NA,1,0,0,1,NA,1,14,14,14,14,21,"1","sub-002",54,55
"555",12,"underestimator",113.3212292,"114.0015268","None",162,144,"underestimator",1,"1","2","0",0.6104699,48,"sub-002",1,1,NA,1,0,1,1,NA,1,15,15,15,15,12,"0","sub-002",48,67
"556",43,"underestimator",117.5400486,"118.4972567","None",143,132,"underestimator",1,"4","3","1",0.8876989,53,"sub-002",3,6,NA,1,0,0,-1,NA,1,16,16,16,16,43,"1","sub-002",49,53
"557",34,"underestimator",122.1965282,"123.1155857","None",176,162,"underestimator",1,"3","4","0",0.8491694,42,"sub-002",3,6,NA,1,0,1,-1,NA,1,17,17,17,17,34,"0","sub-002",42,38
"558",14,"underestimator",126.6379649,"127.2023988","None",124,141,"underestimator",1,"1","4","0",0.495403,83,"sub-002",1,3,1,NA,0,1,NA,1,NA,18,18,18,18,14,"0","sub-002",83,45
"559",21,"underestimator",130.5959604,"131.304414","None",128,178,"underestimator",1,"2","1","0",0.639499,61,"sub-002",2,1,NA,0,0,1,1,NA,0,19,19,19,19,21,"0","sub-002",61,79
"560",21,"underestimator",135.0132078,"135.992636","None",131,168,"underestimator",1,"2","1","0",0.9132102,60,"sub-002",2,1,NA,0,0,1,1,NA,0,20,20,20,20,21,"0","sub-002",60,80
"561",31,"underestimator",139.9311022,"140.7459212","None",162,161,"underestimator",1,"3","1","1",0.7477875,62,"sub-002",1,2,1,NA,0,0,NA,1,NA,21,21,21,21,31,"1","sub-002",64,62
"562",23,"underestimator",144.228165,"144.8347784","None",121,146,"underestimator",1,"2","3","0",0.5356696,63,"sub-002",2,4,1,NA,0,1,NA,1,NA,22,22,22,22,23,"0","sub-002",63,47
